Stress,eyeMoveUp,eyeMoveDown,eyeMoveLeft,eyeMoveRight,blinkSpeed,blinkStrength,walking,roll,pitch,yaw,accX,accY,accZ
1.5829,0.010833333,0.043333333,0.035833333,0.035,3.991666667,2.7575,0.003333333,-14.05725,67.466825,276.4761333,3.562916667,12.92588542,-7.695
1.9203,0.025833333,0.049166667,0.0875,0.083333333,4.625,3.173333333,0.025,-5.160116667,22.68243333,276.713125,1.198854167,3.677864583,-14.4971875
0.5001,0.008333333,0.014166667,0.013333333,0.013333333,4.741666667,3.296666667,0,12.64980833,14.13613333,63.24611667,-3.840520833,1.478385417,-15.356875
1.3952,0.046666667,0.0575,0.0525,0.058333333,5.091666667,4.399166667,0.038333333,-7.9682,29.48458333,284.2562833,1.89828125,4.995260417,-13.64640625
2.2462,0.015833333,0.041666667,0.05,0.068333333,5.516666667,3.453333333,8.33E-04,-1.588308333,9.208991667,132.8267583,0.100364583,0.054635417,-15.62145833
1.2826,0.025811823,0.029975021,0.048293089,0.045795171,3.572023314,2.537052456,0.006661116,-8.829167361,13.18237302,268.3506828,2.045118651,1.024875104,-14.9660179
1.4425,0.01,0.0125,0.025833333,0.020833333,3.175,2.365,0,-17.65375833,53.03775833,333.3657417,4.616510417,10.27130208,-10.20171875
0.7531,0.0125,0.01,0.020833333,0.015,2.325,1.221666667,0,-24.42884167,56.6491,344.5837083,6.33078125,10.53270833,-9.726354167
2.2325,0.025020851,0.040033361,0.062552127,0.071726439,5.663052544,3.491242702,0,-0.611668057,7.138890742,132.5816514,-0.171757715,-0.478054629,-15.73629066
0.967,0.016666667,0.028333333,0.04,0.034166667,1.833333333,1.166666667,0,-10.64709167,26.63845,224.3885083,2.361979167,5.025989583,-14.83505208
1.9557,0.021648626,0.020815987,0.026644463,0.028309742,3.92173189,2.543713572,0,-5.713663614,51.21855121,316.9037968,1.269671107,10.75640092,-11.36537261
0.532,0.009166667,0.005833333,0.020833333,0.025,2.041666667,1.3925,0,-8.663391667,14.62396667,267.0094083,2.175885417,1.497916667,-15.72578125
0.9749,0.023333333,0.0225,0.0175,0.0225,3.091666667,2.2575,0,-11.39024167,19.78948333,322.895725,2.82453125,3.176875,-15.17411458
5.8089,0.039166667,0.068333333,0.078333333,0.080833333,4.825,3.1075,0.045,-11.78654167,44.45069167,187.9071083,3.035104167,8.548645833,-11.86697917
1.1638,0.006666667,0.024166667,0.048333333,0.029166667,2.166666667,1.366666667,0,-6.628533333,-4.7338,204.6202583,1.511510417,-3.605416667,-15.42385417
1.7981,0.036666667,0.098333333,0.1125,0.12,8.175,4.8,0.045,-5.786883333,28.51765,127.2627333,1.08046875,4.896770833,-13.43203125
1.8783,0.026666667,0.0825,0.131666667,0.131666667,8.958333333,5.6975,0.043333333,-8.982358333,17.2311,133.108225,2.135625,2.107447917,-14.57994792
0.8902,0.0125,0.016666667,0.026666667,0.025833333,1.708333333,1.1375,0,-8.4195,1.820816667,88.76214167,2.115416667,-1.810572917,-15.6221875
1.9101,0.029166667,0.051666667,0.085833333,0.065,4.408333333,2.995,0,-7.857575,17.29914167,65.15036667,2.070572917,2.47421875,-14.95557292
2.1589,0.018333333,0.020833333,0.040833333,0.040833333,4.366666667,3.175833333,0,-14.01895,63.552825,325.4937667,3.64484375,12.58713542,-8.607395833
1.7651,0.037531276,0.072560467,0.063386155,0.068390325,4.962468724,2.48707256,0.046705588,-4.417439533,30.16773144,208.5694746,0.884017932,5.28779191,-13.24749791
4.6777,0.0075,0.01,0.006666667,8.33E-04,1.7,1.225833333,0,-14.54301667,64.17614167,120.521575,3.849479167,12.87015625,-8.783072917
1.0248,0.02,0.025833333,0.035,0.031666667,1.733333333,1.329166667,0,-2.273508333,9.940716667,326.97515,0.299427083,0.463229167,-15.87864583
0.9622,0.005833333,0.015833333,0.023333333,0.0175,1.175,1.080833333,0,-6.603475,1.7525,97.11155833,1.565885417,-1.715364583,-15.69994792
4.6948,0.01,0.0475,0.071666667,0.0725,6.716666667,5.591666667,0,-3.556741667,10.32885,333.0146667,0.545885417,0.382447917,-15.03765625
1.0956,0.019182652,0.040033361,0.016680567,0.024186822,2.977481234,2.145954962,0,-5.81969975,28.58354462,37.49247706,1.253753128,5.373957465,-14.981495
4.0679,0.011666667,0.0225,0.019166667,0.029166667,6.008333333,4.691666667,0,18.687725,4.433525,101.02045,-5.521927083,-1.1096875,-14.95645833
1.0837,0.004995837,0.008326395,0.01582015,0.009991674,2.023313905,1.217318901,0,1.056919234,33.64221482,291.6030475,-0.583732306,6.782941299,-14.5355433
0.8676,0.015833333,0.014166667,0.03,0.0225,2.666666667,1.810833333,0,-3.842958333,16.289575,35.048875,0.675364583,2.049375,-15.82130208
1.4329,0.024166667,0.025833333,0.0225,0.016666667,1.258333333,0.788333333,8.33E-04,-5.062225,28.23116667,221.7228333,1.027395833,5.349427083,-14.99104167
0.9623,0.010824313,0.01582015,0.019983347,0.022481266,1.823480433,1.090757702,0,1.998667777,24.7632806,42.64338052,-0.862250208,4.524875104,-15.33888426
4.8525,0.020833333,0.025,0.0425,0.050833333,3.558333333,2.914166667,0.0325,-4.312425,51.352625,182.7303833,0.883229167,9.47828125,-9.670208333
1.4163,0.032445923,0.03577371,0.032445923,0.029118136,3.519134775,2.261231281,0,-19.00695507,20.17994176,200.5280948,4.860388935,3.056364393,-14.81775166
1.3568,0.02754591,0.031719533,0.034223706,0.032554257,2.487479132,1.494991653,0,-8.649265442,22.19649416,192.3287646,2.022902755,3.751460768,-15.25662563
2.3252,0.005,0.013333333,0.01,0.009166667,0.708333333,0.511666667,0,-6.389608333,48.26415,243.7786333,1.37921875,9.093333333,-10.760625
1.7441,0.038333333,0.053333333,0.0525,0.04,3.525,1.865,0,-17.8373,4.934108333,127.6707083,4.5625,-0.800520833,-15.16296875
4.3999,0.010842369,0.018348624,0.007506255,0.00500417,3.41117598,2.786488741,0,-19.32959967,72.1605588,331.1692077,5.150229358,13.57605296,-6.604879066
4.1191,0.02,0.016666667,0.038333333,0.031666667,5.241666667,3.514166667,0,23.45888333,-1.346133333,44.56586667,-6.891145833,-2.680989583,-14.29552083
1.0512,0.005,0.014166667,0.021666667,0.020833333,2.933333333,1.768333333,0,-20.67923333,7.021225,58.99326667,5.123645833,-0.40515625,-14.68166667
1.2325,0.030859049,0.051709758,0.049207673,0.035863219,2.285237698,1.164303586,0,-8.707239366,22.21806505,255.0495997,2.208611343,3.483788574,-14.52793995
1.4688,0.0025,0.0075,0.004166667,0.0075,7.133333333,4.895,0,11.69563333,-3.455683333,129.08035,-3.662135417,-3.348177083,-15.24572917
1.178,0.018333333,0.026666667,0.028333333,0.025,5.216666667,3.783333333,0,-0.746808333,-8.563166667,164.87525,-0.214479167,-4.3734375,-14.96270833
1.4702,0.0075,0.02,0.019166667,0.013333333,1.3,0.94,0,-0.426316667,4.224816667,258.5305167,-0.207083333,-1.077604167,-15.77927083
3.1068,0.0075,0.009166667,0.015833333,0.018333333,1.983333333,1.021666667,0,-6.542816667,5.865041667,40.25101667,1.544479167,-0.609791667,-15.81421875
1.3485,0.01,0.019166667,0.023333333,0.0225,1.816666667,1.249166667,0,1.482375,3.231025,232.1248667,-0.811979167,-1.512083333,-15.86427083
1.3848,0.025854879,0.029190992,0.028356964,0.030025021,2.610508757,1.734778982,8.34E-04,-12.19858215,38.41663887,125.5957465,2.971695163,6.425145955,-11.3646789
1.5153,0.020868114,0.022537563,0.055926544,0.045075125,1.736227045,0.955759599,0,-10.4583389,36.279399,131.2585726,2.35840985,6.789805927,-12.81265651
0.8716,0.005833333,0.009166667,0.0075,0.0075,1.15,0.7075,0,-11.817525,30.39808333,86.72303333,2.5503125,5.502552083,-14.71588542
1.6157,0.015,0.038333333,0.008333333,0.014166667,1.6,0.764166667,0,-7.277666667,6.598891667,118.226675,1.679322917,-0.30296875,-15.75057292
2.664,0.030833333,0.0625,0.0675,0.091666667,4.233333333,2.674166667,0.016666667,-6.44605,30.9594,239.6805417,1.450416667,5.854270833,-14.02854167
1.8162,0.031666667,0.0575,0.086666667,0.075833333,2.958333333,1.7725,0,-7.658508333,19.50944167,60.95766667,1.977135417,3.0971875,-14.74859375
1.3052,0.0125,0.023333333,0.043333333,0.04,5.216666667,3.1875,0,-14.08686667,29.54119167,274.3459917,3.53265625,5.483229167,-14.278125
0.8611,0.01,0.0125,0.011666667,0.011666667,1.425,0.935,0,-11.5699,30.38075,85.91058333,2.581302083,5.54703125,-14.68145833
2.4895,0.001666667,0.005,0.014166667,0.018333333,3.516666667,2.345833333,0,-2.495441667,54.03525833,204.810425,0.5115625,11.3778125,-11.00734375
1.7513,0.006666667,0.0075,0.068333333,0.065833333,3.975,3.2625,0,-1.431358333,14.221275,204.7073583,0.182239583,1.472291667,-15.90911458
0.7076,0.005,0.014166667,0.009166667,0.010833333,3.058333333,1.795833333,0,-7.495291667,26.4604,46.46036667,1.727916667,4.812708333,-15.13822917
1.1026,0.00500417,0.009174312,0.019182652,0.020850709,1.40116764,0.82735613,0,-2.460809008,9.710692244,53.35668057,0.380942452,0.479879066,-15.89235822
1.7519,0.013333333,0.013333333,0.020833333,0.0175,3.091666667,1.8075,0,17.02433333,16.67895833,183.344675,-5.175,2.3659375,-14.86869792
4.5274,0.041631973,0.039966694,0.10990841,0.108243131,5.795170691,3.616153206,0.085761865,-3.529841799,18.10691091,177.0739217,0.899614904,2.639050791,-15.22569734
1.2199,0.0125,0.015,0.015833333,0.008333333,0.766666667,0.4375,0,0.536075,32.69988333,145.3897667,-0.86625,6.76921875,-14.28333333
1.3692,0.020833333,0.041666667,0.019166667,0.020833333,5.433333333,3.280833333,0,10.3348,2.12485,198.1962083,-3.229583333,-1.6315625,-15.08953125
0.9133,0.0075,0.005833333,0.030833333,0.02,1.441666667,0.909166667,0,-3.687725,4.252683333,344.862375,1.019114583,-1.017083333,-15.88640625
1.0042,0.0075,0.01,0.014166667,0.010833333,2.241666667,1.345833333,0,-5.423616667,6.3188,39.30308333,1.293177083,-0.448541667,-15.83677083
1.1214,0.016666667,0.02,0.028333333,0.021666667,1.475,0.593333333,0,-2.922616667,5.650708333,333.0523667,0.664947917,-0.149947917,-15.90140625
1.3338,0.016666667,0.020833333,0.019166667,0.015,1.45,0.633333333,0,-6.147933333,16.410675,330.3028333,1.57359375,2.745,-15.58427083
3.0838,0.021648626,0.064945878,0.064945878,0.079933389,4.629475437,3.213155704,0.032472939,-12.29954205,42.88932556,128.9177269,3.083888426,8.285803497,-12.02315779
1.7148,0.023333333,0.049166667,0.041666667,0.051666667,5.016666667,2.255833333,0.0225,-7.190441667,33.16954167,159.768625,1.582916667,6.377864583,-13.64177083
1.8122,0.028333333,0.045833333,0.051666667,0.054166667,3.241666667,1.579166667,0,-8.03605,22.33351667,36.81238333,1.422604167,4.025677083,-15.318125
1.6888,0.021666667,0.0225,0.024166667,0.019166667,4.433333333,2.9725,0.001666667,-1.015008333,53.56720833,150.9887417,-0.003541667,10.8728125,-10.41458333
1.6364,0.018333333,0.0275,0.043333333,0.0425,3.608333333,2.4225,0.001666667,-9.020275,18.87661667,328.5451167,2.120989583,2.6953125,-15.30223958
1.1337,0.013333333,0.0075,0.024166667,0.0375,3.158333333,1.983333333,0,-13.81814167,7.000708333,114.4811667,3.439427083,-0.373385417,-15.46088542
1.5785,0.0125,0.031666667,0.029166667,0.035,3.941666667,2.321666667,0,-0.007208333,18.88525833,155.6581167,-0.428489583,2.826354167,-14.65333333
3.1117,0.01,0.015,0.0225,0.018333333,1.358333333,0.724166667,8.33E-04,-4.538116667,9.99435,40.89671667,0.984114583,0.681041667,-15.79322917
3.9514,0.006677796,0.007512521,0.031719533,0.025041736,4.841402337,3.196994992,0,-12.70898164,48.29461603,242.0349416,3.402076377,9.348288815,-10.71588063
3.9822,0.009166667,0.015833333,0.029166667,0.038333333,5.341666667,3.6625,0,14.83506667,-0.740533333,119.6640167,-4.5125,-2.4825,-15.10479167
1.5186,0.010833333,0.018333333,0.0175,0.0175,1.9,2.869166667,0,-0.390383333,2.047391667,312.7216667,-0.10890625,-1.7259375,-15.85244792
1.4734,0.015,0.03,0.034166667,0.043333333,2.1,1.5525,0,-11.30511667,17.62698333,105.631875,2.481666667,2.583541667,-15.20067708
2.1193,0.025,0.035833333,0.038333333,0.044166667,4.391666667,2.7,0.0025,-32.42298333,8.262858333,82.81603333,8.17796875,-0.148177083,-13.17427083
1.8496,0.03,0.048333333,0.03,0.033333333,2.675,1.920833333,0,5.821741667,19.78235833,139.4553167,-1.688854167,2.802552083,-14.06302083
4.0723,0.024166667,0.05,0.073333333,0.081666667,2.841666667,1.729166667,8.33E-04,-3.632883333,3.395525,326.613025,0.703229167,-1.619322917,-15.7721875
2.2455,0.026688907,0.029190992,0.052543786,0.057547957,3.686405338,3.531276063,0.003336113,-23.09254379,3.41177648,146.861643,5.893817765,-1.155754796,-14.46841118
0.875,0.009166667,0.015833333,0.020833333,0.019166667,2.341666667,1.594166667,0,-7.629425,22.61245,44.10328333,1.80921875,3.902708333,-15.39463542
1.525,0.029166667,0.045833333,0.025,0.025833333,1.575,0.7975,8.33E-04,-18.475025,49.96205833,60.50695833,4.775729167,10.30802083,-10.75088542
1.282,0.015,0.020833333,0.025,0.02,1.691666667,1.3975,0,-2.634933333,3.838083333,87.84755,0.421666667,-1.157083333,-15.85359375
4.5485,0.015,0.068333333,0.071666667,0.076666667,4.041666667,3.73,0,-0.064,0.398991667,317.5339,-0.3178125,-2.171145833,-15.85479167
1.2896,0.005,0.0075,0.009166667,0.010833333,1.175,0.776666667,0,-9.66645,-0.224625,195.0589167,2.375572917,-2.21015625,-15.55078125
1.1193,0.015,0.01,0.03,0.0275,3.9,2.569166667,0,3.5884,18.834725,75.37973333,-1.41078125,2.795364583,-15.35942708
1.0919,0.011666667,0.009166667,0.019166667,0.023333333,1.416666667,0.795833333,0,-9.061283333,8.351791667,191.6946167,1.994791667,0.075625,-15.62833333
3.0016,0.01,0.0075,0.016666667,0.020833333,1.375,0.8875,0,-10.90785,2.73385,92.43165,2.950989583,-1.321145833,-15.53927083
1.5822,0.0225,0.025,0.021666667,0.024166667,2.75,1.9825,0,9.882508333,18.44980833,176.7273083,-3.080572917,2.758802083,-14.42
3.6892,0.015,0.025833333,0.030833333,0.0325,4.791666667,3.071666667,0,14.30884167,-1.955466667,113.653175,-4.477708333,-2.698125,-14.96817708
3.9359,0.020833333,0.028333333,0.026666667,0.033333333,7.225,5.336666667,8.33E-04,26.63421667,-4.006758333,55.75481667,-7.446458333,-3.058229167,-13.54098958
4.3133,0.029166667,0.085,0.155,0.136666667,8.283333333,7.024166667,0.0825,-5.159441667,16.69225833,169.6122083,1.339635417,2.27953125,-15.11421875
1.1038,0.008333333,0.019166667,0.020833333,0.0175,1.741666667,1.131666667,0,-7.06205,15.77894167,106.1534,1.674583333,1.922916667,-15.27869792
1.816,0.025,0.04,0.0525,0.0475,4.141666667,2.753333333,0.016666667,-11.98441667,39.179575,134.254975,3.030729167,7.236927083,-12.55697917
1.2381,0.005833333,0.015833333,0.024166667,0.024166667,1.791666667,0.981666667,0,-5.6888,33.82471667,177.0892,1.213802083,6.701302083,-14.26796875
1.1262,0.010833333,0.01,0.008333333,0.014166667,3.116666667,1.839166667,0,-5.64995,40.43066667,50.61573333,1.298020833,8.363697917,-13.53854167
2.4107,0.008333333,0.010833333,0.020833333,0.016666667,2.833333333,1.98,0,-5.3946,47.74033333,309.6984583,1.244270833,10.08338542,-12.10692708
4.4306,0.01582015,0.067443797,0.085761865,0.09325562,6.386344713,3.960033306,0.034970858,-8.916777685,32.73899251,119.5555121,1.99989592,6.430995004,-13.73308701
1.1077,0.015,0.0175,0.033333333,0.035833333,3,1.924166667,0,-3.361275,27.0103,115.45345,0.594895833,5.169375,-15.11130208
1.956,0.01,0.043333333,0.0575,0.063333333,4.891666667,2.475833333,0,-7.044891667,33.49523333,13.72604167,1.713541667,6.45125,-14.57744792
1.0272,0.01,0.019166667,0.025833333,0.021666667,2.158333333,1.34,0,-16.94474167,24.53663333,213.848375,4.072239583,4.363645833,-14.69994792
1.549,0.010833333,0.011666667,0.014166667,0.011666667,1.916666667,1.205,0,-2.681408333,41.2686,168.5471917,0.402395833,8.7278125,-13.29703125
3.6914,0.016666667,0.021666667,0.026666667,0.028333333,5.1,3.024166667,0,12.65715,-1.070125,35.44333333,-3.903385417,-2.315,-14.98359375
1.2159,0.016666667,0.025,0.026666667,0.015,5.075,3.67,0,2.54855,20.85363333,191.31915,-0.990572917,3.1209375,-13.1621875
1.471,0.0175,0.026666667,0.0275,0.028333333,1.941666667,1.096666667,0,-11.24276667,-0.44405,174.9623583,2.584427083,-2.34484375,-15.50557292
2.5021,0.030859049,0.077564637,0.104253545,0.119266055,6.788990826,3.724770642,0.020850709,-4.60618849,19.79960801,219.0233028,0.798008757,3.02971226,-14.86983945
2.0339,0.024126456,0.038269551,0.055740433,0.060732113,3.244592346,1.977537438,0.004159734,-26.01733777,35.9883777,248.5844093,6.488144759,6.272826539,-12.4624584
1.4959,0.009166667,0.018333333,0.03,0.031666667,0.883333333,0.599166667,0,-8.2631,2.137883333,91.57638333,2.04078125,-1.569427083,-15.67078125
4.2376,0.028333333,0.044166667,0.090833333,0.070833333,5.958333333,4.869166667,0.051666667,-9.714925,35.24635833,166.9285333,2.619947917,6.686354167,-13.13916667
3.3378,0.02,0.040833333,0.029166667,0.035,5.6,3.426666667,8.33E-04,11.8842,1.440175,190.7835917,-3.604635417,-1.7515625,-14.78645833
1.1928,0.008333333,0.009166667,0.016666667,0.013333333,1.008333333,0.6125,0,-7.623858333,30.11739167,157.3158833,1.60078125,6.133645833,-14.57505208
4.9109,0.025,0.0475,0.041666667,0.0525,4.075,2.376666667,0.0025,-10.28166667,11.42013333,142.3788,2.55328125,0.619479167,-15.36270833
1.7383,0.026666667,0.025833333,0.066666667,0.056666667,3.191666667,2.221666667,0.0025,-5.895691667,21.97773333,274.61465,1.232447917,3.598958333,-14.59375
1.592,0.024146545,0.024146545,0.040799334,0.054954205,5.778517902,3.420482931,0,7.233613655,-4.806452956,116.2985512,-2.539550375,-3.413197336,-14.85303913
2.0908,0.016652789,0.040799334,0.067443797,0.069109076,3.888426311,2.887593672,0.008326395,-5.652472939,23.99169858,233.7057452,1.116673605,3.754059117,-14.33503331
1.9863,0.042535446,0.033361134,0.028356964,0.044203503,3.828190158,2.709758132,0,9.801334445,-1.077456214,157.9474979,-3.034664304,-2.367650125,-15.25099041
1.4366,0.008340284,0.014178482,0.033361134,0.029190992,1.584653878,0.759799833,8.34E-04,-4.443286072,5.212326939,49.17623019,0.879795663,-0.444641368,-15.76308382
1.4704,0.0175,0.024166667,0.025833333,0.0275,3.733333333,2.263333333,8.33E-04,3.7136,16.53205833,78.08448333,-1.432760417,2.1678125,-15.12776042
1.5619,0.040033361,0.072560467,0.07089241,0.053377815,1.217681401,0.973311093,0.001668057,-7.593644704,18.92703086,79.22868224,1.933955379,2.856025855,-14.81286489
1.6904,0.0375,0.0325,0.040833333,0.031666667,2.525,1.285833333,0,-4.661991667,13.118125,77.311925,0.853697917,1.420885417,-15.69296875
0.921,0.0025,0.005,0.0125,0.0125,2.2,1.355,0,-5.991516667,4.88715,349.3567167,1.278020833,-0.773385417,-15.86463542
1.6245,0.0125,0.013333333,0.031666667,0.03,4.516666667,3.753333333,0,12.61820833,15.25191667,250.89055,-3.940052083,1.589739583,-14.70145833
1.6444,0.01000834,0.028356964,0.034195163,0.035029191,2.685571309,1.450375313,0,-8.13587156,5.459241034,284.6242118,1.902992077,-0.852429108,-15.74296289
1.488,0.012510425,0.020016681,0.040867389,0.032527106,3.027522936,2.118432027,0,-5.756321935,21.27331109,330.9177148,1.30603628,3.40309633,-14.99697665
1.5069,0.010833333,0.0275,0.015833333,0.015,2.433333333,1.705833333,0,-6.618333333,3.493308333,215.4033583,1.52015625,-1.315833333,-15.78322917
1.63,0.015,0.0075,0.019166667,0.018333333,1.741666667,0.944166667,0,-5.553266667,38.21859167,201.7282583,1.132135417,7.626822917,-13.31760417
5.5409,0.03,0.0575,0.078333333,0.076666667,5.541666667,3.229166667,8.33E-04,-14.73143333,19.674375,192.18665,3.73734375,3.118958333,-14.9215625
1.1755,0.009166667,0.013333333,0.02,0.015,1.241666667,0.824166667,0,-5.51525,27.09176667,225.7897167,1.354635417,5.08625,-15.12604167
1.0836,0.010833333,0.009166667,0.009166667,0.005,1.225,0.695833333,0,-9.369625,3.244841667,65.73399167,2.258385417,-1.469270833,-15.65182292
1.4277,0.010833333,0.024166667,0.021666667,0.024166667,3.05,1.953333333,0,-9.691258333,28.98490833,92.44864167,2.375208333,4.988854167,-13.24630208
1.7005,0.016680567,0.017514595,0.014178482,0.017514595,2.969140951,1.899082569,0,12.45910759,11.70911593,69.60181818,-3.62338407,-0.04941618,-14.80342994
3.5836,0.019166667,0.034166667,0.059166667,0.055,1.75,1.185833333,0.001666667,-8.315333333,12.06180833,308.5513583,2.126614583,1.06796875,-15.53901042
2.6996,0.035833333,0.0725,0.104166667,0.095,5.566666667,3.036666667,0.029166667,-4.944891667,22.16655833,78.91425833,1.107395833,3.68953125,-14.62375
2.1855,0.017514595,0.035863219,0.048373645,0.053377815,3.894912427,2.24854045,0,10.71173478,-1.578457048,114.9147957,-3.597164304,-2.530129274,-15.31766055
1.44,0.016666667,0.0225,0.025833333,0.024166667,2.708333333,1.7075,0,-12.442825,20.09656667,300.7807917,3.16984375,3.083177083,-14.51046875
1.5198,0.018372703,0.026246719,0.005249344,0.005249344,2.099737533,0.782152231,0.002624672,-13.2667979,54.16414698,30.2003937,3.32152231,11.61499344,-10.34399606
1.0915,0.021684737,0.024186822,0.026688907,0.024186822,5.65471226,4.040033361,0,6.705829858,-7.050800667,160.3920183,-2.149655963,-4.043369475,-15.14517306
2.2841,0.0125,0.025833333,0.0275,0.026666667,1.366666667,0.8125,0,-5.634716667,33.36989167,241.8904417,1.297864583,5.791927083,-12.48708333
1.5255,0.021684737,0.041701418,0.022518766,0.030025021,6.371976647,4.23853211,8.34E-04,14.14024187,4.199032527,202.3380734,-4.21882819,-1.028304837,-14.81187448
3.8359,0.029166667,0.0375,0.0425,0.056666667,2.616666667,1.704166667,0.003333333,-5.2678,22.52434167,59.76350833,1.1825,3.9859375,-15.2596875
3.5449,0.024166667,0.035,0.0325,0.040833333,5.6,4.385,0,4.09715,3.865883333,142.2734667,-1.506927083,-1.345989583,-15.70046875
1.8975,0.015833333,0.0175,0.0425,0.035833333,6.491666667,4.300833333,0,-15.241625,-6.138908333,329.67475,3.806614583,-4.134635417,-14.68
1.6959,0.0325,0.046666667,0.045833333,0.038333333,4.541666667,2.724166667,0,3.072958333,20.29165,267.4299667,-1.03984375,3.116822917,-15.01520833
1.1489,0.016666667,0.0125,0.005833333,0.003333333,1.383333333,0.903333333,0,-9.120541667,5.802466667,115.1033417,2.245520833,-0.519114583,-15.66546875
1.6514,0.0225,0.039166667,0.046666667,0.0275,1.7,0.8025,0,-1.320666667,10.56841667,339.5116833,0.0321875,0.762760417,-15.5184375
1.1513,0.027522936,0.032527106,0.020016681,0.021684737,4.745621351,3.102585488,0,9.847114262,1.789683069,158.8455046,-3.211843203,-1.646580484,-14.86405338
1.7226,0.0125,0.0275,0.0175,0.029166667,1.125,0.705833333,0,-8.486208333,2.074666667,157.0847417,1.991145833,-1.678802083,-15.70177083
4.0523,0.041474654,0.115207373,0.096774194,0.124423963,7.926267281,5.110599078,0.078341014,-4.300368664,8.462396313,285.4885714,1.199596774,-0.399769585,-14.97407834
1.9281,0.013333333,0.03,0.039166667,0.045833333,5.333333333,3.905833333,0,14.970325,1.96615,92.55679167,-4.508645833,-1.651614583,-15.02380208
1.9245,0.0225,0.049166667,0.056666667,0.046666667,4.633333333,3.095,0.034166667,-5.967625,38.03386667,195.662475,1.279427083,7.234479167,-12.55
3.7406,0.021666667,0.041666667,0.048333333,0.050833333,5.466666667,3.289166667,0.019166667,-3.836683333,9.708658333,271.7265667,0.668177083,0.306927083,-14.89916667
1.5872,0.013344454,0.018348624,0.046705588,0.045037531,2.493744787,1.432860717,0.007506255,-9.418607173,45.11643036,91.73854045,2.304837364,9.229879066,-12.12750209
1.531,0.0075,0.0225,0.025833333,0.021666667,1.041666667,0.71,0,-2.446541667,5.321891667,342.8946417,0.32921875,-0.78859375,-15.90130208
4.2976,0.015833333,0.018333333,0.035,0.055833333,4.408333333,3.346666667,8.33E-04,10.66953333,0.931125,99.65458333,-3.232760417,-2.147604167,-15.1440625
1.4445,0.004166667,0.010833333,0.013333333,0.0075,1.941666667,1.240833333,0,-4.779075,42.66944167,10.81495833,1.052291667,8.992083333,-13.28880208
1.3078,0.013322231,0.01582015,0.026644463,0.024979184,1.382181515,0.841798501,0,-10.45532889,5.037393838,298.1137552,2.445462115,-0.815830558,-15.50437136
1.8934,0.0175,0.03,0.036666667,0.043333333,6.475,4.134166667,0,18.867675,1.035791667,50.94805833,-5.600520833,-2.066927083,-14.62895833
1.5902,0.025,0.0475,0.031666667,0.0275,4.375,2.529166667,0,0.499466667,18.28578333,101.1257583,-0.5359375,2.691770833,-15.06322917
1.3125,0.016652789,0.016652789,0.024146545,0.024979184,4.096586178,3.289758535,0,-7.074546211,20.39701915,233.9548959,1.575093672,3.337114904,-15.20045795
1.3197,0.014166667,0.020833333,0.021666667,0.020833333,0.983333333,0.5475,0,-7.211075,0.58885,121.3726667,1.641145833,-2.175885417,-15.61109375
2.0911,0,0,0.05,0.05,8.25,4.55,0,-23.007,42.791,167.61775,2.9859375,8.134375,-13.340625
1.5097,0.01,0.014166667,0.025833333,0.0225,1.508333333,1.056666667,0,0.525883333,5.532408333,83.83926667,-0.534583333,-0.743020833,-15.945625
1.4115,0.0175,0.020833333,0.034166667,0.025,1.583333333,0.938333333,0,-2.452383333,7.012125,336.7800417,0.145729167,-0.525416667,-16.03786458
1.5894,0.01,0.020833333,0.021666667,0.0225,2.325,1.1725,0,-7.979141667,33.53526667,165.4496583,1.806666667,6.784635417,-13.49473958
2.8266,0.014166667,0.013333333,0.02,0.0125,1.533333333,0.971666667,0,-6.678966667,14.3954,118.824375,1.461510417,1.474895833,-15.78890625
5.4209,0.028333333,0.038333333,0.045,0.074166667,4.133333333,2.671666667,8.33E-04,-15.33448333,10.32825,33.62815,3.85765625,0.37296875,-14.94161458
1.6831,0.016666667,0.031666667,0.05,0.055,1.875,1.443333333,0,-0.1667,15.07388333,190.3375333,-0.331979167,1.715729167,-15.8375
2.3455,0.010833333,0.038333333,0.025833333,0.045833333,2.775,1.8025,0.003333333,-8.701641667,40.777775,280.270675,2.255052083,7.97796875,-11.70786458
2.8939,0.005833333,0.013333333,0.018333333,0.014166667,1.825,1.115,0,-3.808241667,4.279391667,69.500325,0.764635417,-0.757395833,-15.79010417
1.5606,0.005,0.009166667,0.023333333,0.021666667,1.95,1.380833333,0,1.432975,2.01705,226.8056417,-0.766458333,-1.820416667,-15.85484375
4.4169,0.0225,0.02,0.030833333,0.028333333,3.475,1.995833333,0,-4.464091667,50.22245833,307.4706667,0.9359375,10.350625,-11.60854167
4.1086,0.043369475,0.06588824,0.096747289,0.105087573,3.64470392,2.080066722,0.020850709,21.07328607,58.42313595,228.8183903,-5.221330275,7.943598832,-7.868327773
1.7866,0.013333333,0.025833333,0.029166667,0.041666667,2.383333333,1.349166667,0,-2.54485,7.8325,168.6726167,0.420833333,-0.028645833,-15.94015625
2.7265,0.044166667,0.069166667,0.114166667,0.125833333,5.691666667,3.55,0.089166667,-3.652333333,25.42766667,200.0500333,0.90515625,4.515572917,-14.23692708
1.3254,0.014166667,0.014166667,0.019166667,0.018333333,1.575,0.98,0,-3.0321,5.328666667,39.78451667,0.457447917,-0.873385417,-15.86708333
2.4461,0.003333333,0.020833333,0.0325,0.025,5.275,3.750833333,0,-21.0908,80.30074167,136.1297167,5.668802083,14.1621875,-4.752708333
4.8456,0.014166667,0.0325,0.058333333,0.053333333,6.15,3.995833333,0,-11.48805,-0.979875,117.4123417,2.95765625,-2.495104167,-15.28145833
1.3243,0.007493755,0.007493755,0.014154871,0.009159034,1.398834305,0.839300583,0,-5.916286428,6.115986678,253.280766,1.620056203,-0.741413405,-15.82920483
3.3774,0.024166667,0.025,0.030833333,0.03,3.275,2.025,0.006666667,14.759425,16.04311667,102.0397667,-4.505,1.92296875,-14.8821875
1.3203,0.010833333,0.014166667,0.013333333,0.009166667,0.983333333,0.584166667,0,-5.56105,25.81876667,89.304075,1.075625,4.7253125,-15.23125
3.6255,0.043333333,0.079166667,0.09,0.095,2.266666667,1.475833333,0,-5.312933333,8.133791667,63.82776667,1.332447917,-0.004270833,-15.578125
1.8536,0.018333333,0.034166667,0.025833333,0.025,4.191666667,2.4775,0,-8.880641667,10.478825,112.2467667,1.864895833,0.35109375,-15.38302083
1.4809,0.028333333,0.043333333,0.059166667,0.065833333,1.691666667,0.864166667,0,-6.0689,1.539008333,311.6027333,1.337135417,-1.674322917,-15.75791667
1.7969,0.0125,0.034166667,0.0375,0.034166667,1.25,0.571666667,0,-3.998183333,1.926941667,110.597575,0.749270833,-1.845989583,-15.76322917
1.6674,0.013333333,0.02,0.025,0.033333333,2.975,1.81,0,-0.355416667,21.93543333,140.7086667,-0.25265625,3.193020833,-14.12854167
2.1608,0.028309742,0.0632806,0.04746045,0.034970858,5.170691091,3.733555371,0,4.211656953,-2.541257286,268.350741,-1.675062448,-2.663249376,-15.49104913
1.7142,0.026666667,0.034166667,0.046666667,0.046666667,3.141666667,1.61,0.020833333,-7.774341667,40.13485,102.793825,1.74515625,7.702708333,-12.56203125
1.9612,0.008333333,0.025833333,0.040833333,0.035,1.975,1.27,0.003333333,-13.6193,33.81445,264.9263667,3.399791667,6.5340625,-13.49666667
1.7221,0.026666667,0.025833333,0.0275,0.030833333,2.508333333,1.424166667,0,2.610175,25.03270833,118.9344,-1.0034375,4.4134375,-14.65239583
1.3701,0.013333333,0.025833333,0.03,0.033333333,2.791666667,1.5925,0,-10.05676667,23.74785,164.435375,2.381875,4.271041667,-14.93390625
2.4883,0.015,0.0575,0.065,0.0625,3.241666667,2.274166667,0,-8.780583333,17.66879167,282.1119917,2.103333333,2.45140625,-14.87302083
1.1045,0.011666667,0.0175,0.023333333,0.023333333,2.325,1.528333333,0,-7.1462,31.57038333,49.39914167,1.651354167,6.128645833,-14.6946875
2.9803,0.013333333,0.018333333,0.021666667,0.021666667,1.616666667,1.165833333,0,-7.0366,14.51455,99.04971667,1.553125,1.672083333,-15.425625
3.9744,0.019166667,0.038333333,0.049166667,0.055,4.325,2.756666667,8.33E-04,-4.819366667,21.50071667,110.0265667,0.769427083,3.28546875,-14.32661458
5.0915,0.040799334,0.0632806,0.089092423,0.085761865,4.404662781,2.118234804,0.0316403,-10.47425479,28.6750791,216.9450708,2.65684846,5.061667361,-13.81921316
1.5832,0.0175,0.024166667,0.015833333,0.02,5.266666667,3.185833333,0,-4.241066667,-15.53775,113.74845,0.604791667,-6.2334375,-14.59427083
1.2197,0.004166667,0.010833333,0.023333333,0.024166667,1.275,0.819166667,0,-4.555808333,24.744775,226.1560833,0.8953125,4.609427083,-15.23338542
1.3916,0.005833333,0.020833333,0.03,0.02,2.825,1.6125,0,-11.6462,3.6499,255.4683917,2.863802083,-1.23640625,-15.48645833
3.7821,0.018333333,0.043333333,0.04,0.0375,4.475,3.08,0,-22.39625833,0.503516667,140.879125,5.746614583,-1.883385417,-14.61791667
2.208,0.028333333,0.055833333,0.0525,0.0875,5.8,3.9475,0.05,-3.303583333,9.09575,171.0480083,0.737239583,0.372083333,-15.00427083
5.4736,0.029166667,0.0425,0.060833333,0.0775,5.325,3.44,0,-14.4814,-2.473475,97.84788333,3.655885417,-3.018020833,-14.93296875
4.1075,0.02,0.029166667,0.045,0.044166667,4.241666667,2.839166667,0,-15.18260833,13.30175833,101.8140167,3.6821875,1.359739583,-15.01911458
1.3717,0.009166667,0.011666667,0.025833333,0.019166667,2.208333333,1.4875,0.001666667,-6.777875,14.789975,244.50215,1.59828125,1.7184375,-14.90578125
1.3121,0.015,0.025,0.029166667,0.039166667,4.341666667,3.258333333,0,-4.5823,30.98049167,120.0027583,0.88625,6.188020833,-14.630625
2.6849,0.015,0.008333333,0.016666667,0.011666667,1.291666667,0.855833333,0,-5.239508333,5.92645,94.542275,1.092916667,-0.571145833,-15.85302083
1.5043,0.013333333,0.020833333,0.026666667,0.030833333,3.283333333,2.14,0,-1.703233333,20.21998333,106.5082167,0.077916667,3.286041667,-15.19541667
1.0032,0.009174312,0.01501251,0.032527106,0.025854879,3.903252711,2.858215179,0,-20.30967473,28.91211009,276.6236614,5.2301397,5.110352377,-14
4.8888,0.0425,0.079166667,0.099166667,0.0975,5.55,3.161666667,0.0425,-10.70200833,24.98023333,190.599375,2.8253125,3.895260417,-14.21828125
4.8985,0.013322231,0.034138218,0.038301415,0.037468776,1.207327227,0.876769359,0.023313905,-10.72087427,30.37441299,267.1819817,2.544910491,4.157212739,-12.43396128
1.2764,0.0025,0.005,0.004166667,0.0025,1.825,1.393333333,0,-8.206616667,5.712166667,116.6306,1.86890625,-0.82609375,-15.75614583
1.3807,0.004170142,0.011676397,0.020850709,0.020016681,1.334445371,0.8323603,0,-4.514837364,22.33710592,91.14084237,0.952929525,3.719557965,-15.30478524
1.5432,0.02,0.021666667,0.021666667,0.020833333,2.025,1.369166667,8.33E-04,-4.671525,5.627166667,92.05884167,0.968333333,-0.652708333,-15.80442708
1.4646,0,0,0,0,1.05,0.715,0,-5.850858333,3.360575,8.604183333,1.4984375,-0.665052083,-15.84671875
3.5674,0.011666667,0.039166667,0.065833333,0.065,2.866666667,1.635833333,0.001666667,-5.357558333,29.01704167,233.5176583,1.2928125,5.119322917,-13.86880208
1.9816,0.009991674,0.020815987,0.04746045,0.040799334,2.597835137,1.706078268,0,-7.652581182,39.16302248,235.3931474,1.833576187,7.762541632,-12.92563489
1.5527,0.006666667,0.009166667,0.019166667,0.018333333,3.191666667,1.918333333,0,-5.1741,40.11174167,170.584125,1.054791667,8.12453125,-13.306875
1.3906,0.01,0.015833333,0.021666667,0.0125,1.141666667,0.874166667,0,-7.429633333,5.142033333,100.7400833,1.777291667,-0.506979167,-15.76552083
3.1788,0.025,0.025833333,0.0225,0.018333333,1.283333333,0.761666667,0,-3.960308333,2.887308333,28.00379167,0.941979167,-1.100885417,-15.83302083
1.3573,0.011676397,0.011676397,0.014178482,0.015846539,1.768140117,1.2235196,0,-4.671576314,5.243169308,45.23717264,0.999791493,-0.788365304,-15.85295038
1.7348,0.013333333,0.018333333,0.020833333,0.025833333,4.225,2.6475,0,20.89466667,18.56638333,80.72561667,-5.926197917,2.526302083,-13.72520833
3.6593,0.015,0.026666667,0.019166667,0.025833333,3.975,2.780833333,0,-7.772975,5.185,83.947475,1.862552083,-0.89953125,-15.68677083
4.1826,0.01498751,0.04662781,0.049125729,0.058284763,4.462947544,2.669442132,0,-1.940457952,20.43323064,92.06654455,0.227466694,3.100281016,-15.13629267
1.9659,0.015,0.033333333,0.0375,0.043333333,5.433333333,3.804166667,0.003333333,10.8241,-1.159675,192.8027083,-3.32453125,-2.63953125,-14.96458333
1.5555,0.0125,0.019166667,0.03,0.024166667,2.758333333,2.24,0,-5.73995,1.758525,264.7825,1.3234375,-1.274947917,-15.76208333
1.8496,0.015833333,0.036666667,0.065,0.055,5.008333333,2.9875,0.034166667,-5.884341667,20.42146667,174.7898917,1.34609375,3.034114583,-15.15125
3.0305,0.013333333,0.019166667,0.03,0.028333333,2.216666667,1.035,0,-10.2299,7.637991667,104.8582917,2.65296875,-0.25140625,-15.53140625
1.5555,0.008333333,0.013333333,0.019166667,0.0125,1.291666667,0.9075,0,-5.363883333,1.571841667,256.4604417,1.107447917,-1.860052083,-15.74880208
1.3837,0.009166667,0.0125,0.0225,0.0125,0.716666667,0.4575,0,-4.115375,22.54770833,90.54575,0.886354167,4.233697917,-15.405
2.4818,0.006661116,0.009991674,0.013322231,0.009159034,0.899250624,0.708576187,0,-6.2677602,7.076111574,45.566403,1.339925062,-0.455453789,-15.81218776
2.9518,0.003333333,0.009166667,0.015833333,0.011666667,2.408333333,1.364166667,0,-8.467741667,4.053125,168.971175,2.171302083,-1.221510417,-15.68666667
1.2861,0.01000834,0.011676397,0.015846539,0.006672227,1.476230192,0.849874896,0,-8.046839033,8.207139283,74.21788157,1.965179316,-0.015794412,-15.73801084
1.6877,0.01501251,0.027522936,0.020850709,0.01501251,0.867389491,0.643035863,0,-6.023911593,5.21969975,337.8662219,1.408361134,-0.822404087,-15.80707882
3.4846,0.025,0.039166667,0.016666667,0.024166667,4.608333333,3.1475,0,18.5005,0.719358333,186.5399917,-5.336458333,-2.00296875,-14.73265625
1.4267,0.023333333,0.031666667,0.034166667,0.030833333,6.333333333,5.019166667,0.003333333,13.67708333,0.8927,132.2818917,-4.19125,-1.93515625,-13.65171875
1.2844,0.015,0.011666667,0.016666667,0.019166667,1.241666667,0.790833333,0,-7.060316667,4.899925,95.10779167,1.593958333,-0.941145833,-15.77760417
1.721,0.035,0.051666667,0.04,0.036666667,5.341666667,3.723333333,8.33E-04,1.276683333,-1.673508333,172.8239667,-0.796770833,-2.7175,-14.78083333
1.4573,0.026644463,0.032472939,0.025811823,0.023313905,2.589508743,2.106577852,0,-9.603388843,32.86746045,63.93821815,2.233034971,6.504891757,-14.04189217
3.382,0.004166667,0.01,0.010833333,0.005,1.283333333,0.919166667,0,-5.104858333,4.23845,39.60961667,1.30625,-0.444010417,-15.83979167
1.5757,0.006666667,0.014166667,0.023333333,0.013333333,4.833333333,3.169166667,0,-22.99315833,-0.778166667,203.085575,5.825729167,-2.508333333,-14.224375
1.525,0.009166667,0.015833333,0.0175,0.0175,1.416666667,0.776666667,0,-7.745616667,4.32995,68.81240833,1.914270833,-0.97796875,-15.72776042
4.2498,0.021666667,0.026666667,0.014166667,0.029166667,1.925,1.188333333,0,-15.6631,69.54310833,318.2697417,4.064791667,12.95932292,-6.818385417
1.3757,0.014166667,0.013333333,0.045,0.033333333,1.283333333,0.926666667,0,-6.120133333,14.49696667,212.7347417,1.452916667,1.57,-15.720625
1.9098,0.025020851,0.057547957,0.07589658,0.07589658,7.706422018,5.079232694,0.040867389,-7.041726439,18.55740617,195.5599583,1.549520434,2.449645538,-14.39152419
1.723,0.026666667,0.030833333,0.026666667,0.025,5.708333333,3.384166667,0,4.830825,4.031833333,128.9655667,-1.889895833,-1.34296875,-15.48703125
1.4444,0.014166667,0.009166667,0.023333333,0.020833333,1.791666667,1.251666667,0,-3.282858333,7.269758333,58.58034167,0.43796875,-0.434375,-15.91208333
3.8597,0.018315018,0.032967033,0.034798535,0.027472527,4.102564103,2.781135531,0,19.24526557,8.451309524,143.1509524,-5.175022894,0.987809066,-14.71840659
2.094,0.011666667,0.019166667,0.0275,0.024166667,5.675,4.725,0,22.86429167,-1.369208333,50.79135833,-6.650729167,-2.670052083,-14.24963542
1.5689,0.020850709,0.031693078,0.030025021,0.022518766,2.226855713,1.507089241,0,-14.70057548,38.90897415,65.90724771,3.750469141,7.940054212,-12.49040867
1.7077,0.01,0.025833333,0.0275,0.014166667,1.775,1.178333333,0,-1.429075,20.988,333.1225167,-0.026197917,3.500572917,-15.61354167
1.7676,0.011666667,0.020833333,0.02,0.024166667,2.041666667,1.201666667,0,-3.57045,8.3477,221.008625,0.729791667,-0.116354167,-15.9225
2.2326,0.019966722,0.054908486,0.029118136,0.03078203,4.126455907,2.934276206,0.03078203,-8.581622296,40.42445923,103.6109401,2.053452579,7.802776622,-12.19472754
4.0053,0.009174312,0.033361134,0.040033361,0.031693078,1.334445371,0.711426188,0,-3.290567139,8.558882402,14.04900751,0.577408257,-0.070527523,-16.00244996
1.2994,0.018333333,0.021666667,0.021666667,0.019166667,2.941666667,1.643333333,0,-15.697175,22.08186667,134.7124833,4.01203125,3.737604167,-14.74895833
3.9731,0.027477102,0.098251457,0.136552873,0.126561199,7.618651124,4.527060783,0.057452123,-9.174213156,35.53589509,209.6679101,2.17110741,6.200405912,-12.16470649
3.0464,0.008333333,0.019166667,0.028333333,0.035833333,3.05,1.999166667,0,-12.48471667,18.78123333,34.53356667,3.075104167,2.6153125,-14.89994792
3.8947,0.039166667,0.063333333,0.043333333,0.0525,2.925,1.944166667,0.001666667,-21.79989167,11.884925,158.2380667,5.566614583,1.090885417,-14.22619792
1.5218,0.006666667,0.013333333,0.015833333,0.015,1.45,0.923333333,0,-1.04125,21.294475,21.28710833,-0.1315625,3.60671875,-15.57161458
3.5362,0.017529215,0.024207012,0.013355593,0.015859766,4.966611018,2.797161937,0,5.864282137,13.12201169,98.71125209,-2.140964107,1.092028381,-15.18807387
1.8029,0.010833333,0.018333333,0.0175,0.021666667,0.925,0.6125,0,-3.608641667,29.68986667,48.85076667,0.76015625,5.800364583,-14.88036458
2.3526,0.002497918,0.003330558,0.007493755,0.004163197,1.207327227,0.854288093,0,-5.417085762,4.782647794,28.60422981,1.385460033,-0.282785179,-15.83836386
3.7115,0.022481266,0.041631973,0.049125729,0.04746045,4.596169858,3.721065779,0,5.74113239,5.682106578,43.70718568,-1.981838052,-0.837375104,-15.3807244
4.0858,0.010824313,0.013322231,0.01498751,0.01582015,2.148209825,1.076602831,0.002497918,-34.68278934,47.32741049,25.79694421,8.705401749,6.548761449,-9.987666528
1.618,0.016666667,0.0225,0.023333333,0.0375,4.333333333,3.249166667,0,13.82609167,-3.041958333,138.7711083,-4.208489583,-3.059322917,-14.87270833
4.3067,0.010833333,0.0325,0.051666667,0.045833333,1.916666667,1.000833333,0.003333333,-8.430025,23.90589167,287.103625,1.906145833,3.61203125,-13.94703125
3.8051,0.031693078,0.030025021,0.041701418,0.046705588,2.927439533,1.981651376,8.34E-04,5.23528774,4.505346122,111.4344621,-2.190836113,-0.81766055,-14.87374896
1.9227,0.024166667,0.029166667,0.058333333,0.065833333,2.983333333,1.366666667,0,-4.095083333,1.436591667,316.7383917,0.831458333,-1.797552083,-15.79333333
2.5437,0.0175,0.024166667,0.039166667,0.053333333,3.041666667,1.963333333,0,-17.91705833,-5.700516667,110.70155,4.643333333,-3.3521875,-14.198125
1.2799,0.016638935,0.012479201,0.031613977,0.03078203,2.321131448,1.673876872,0,-5.703652246,15.46018303,105.579609,1.255927621,1.908017887,-15.74729617
2.3509,0.003333333,0.0025,0.008333333,0.005,1.458333333,1.016666667,0,-7.988733333,24.40503333,111.1877333,2.016875,4.496666667,-15.15651042
2.0046,0.023333333,0.0725,0.045833333,0.041666667,4.325,2.23,0.045,-4.407991667,27.25911667,191.097025,0.82359375,4.598177083,-13.2953125
2.0217,0.020850709,0.018348624,0.012510425,0.023352794,3.169307756,2.225187656,8.34E-04,-29.40883236,45.39765638,58.30381151,6.677700167,6.239001251,-10.30895538
1.9726,0.025833333,0.044166667,0.050833333,0.051666667,2.066666667,1.305833333,0,-0.951925,1.316866667,96.350125,-0.121614583,-2.131770833,-15.69182292
2.767,0.024166667,0.0525,0.046666667,0.0525,6.1,4.670833333,0,-7.91535,-0.909375,116.6514833,1.813385417,-2.04703125,-15.46244792
3.9839,0.031666667,0.036666667,0.059166667,0.060833333,3.075,1.9425,0.005833333,-28.97095833,34.098825,312.4670083,7.198802083,5.75390625,-12.34588542
3.0164,0.0125,0.019166667,0.020833333,0.014166667,1.6,0.978333333,0.003333333,-9.319266667,7.008008333,88.62000833,2.118333333,-0.355729167,-15.65552083
3.8761,0.019166667,0.040833333,0.053333333,0.048333333,4.425,2.460833333,0.0025,-12.4277,31.78060833,317.3635583,3.181354167,6.235833333,-14.1390625
1.9666,0.0225,0.056666667,0.036666667,0.0425,1.841666667,1.01,0,-15.61845,3.009716667,259.48935,3.99578125,-1.38609375,-15.22833333
1.8841,0.010833333,0.028333333,0.031666667,0.030833333,2.941666667,1.646666667,0,-2.597425,7.688075,340.024175,0.201510417,-0.315572917,-15.98322917
1.8751,0.010833333,0.023333333,0.023333333,0.0125,6.433333333,4.415,0,-22.6226,5.32115,163.4464833,5.728697917,-0.808125,-14.41630208
2.1313,0.0475,0.055833333,0.058333333,0.0775,3.066666667,1.79,0,-3.853675,6.675683333,168.6286083,0.791197917,-0.39578125,-15.72807292
2.0497,0.018333333,0.03,0.030833333,0.029166667,2.991666667,1.939166667,0,-2.09205,2.4765,112.3213833,0.189479167,-1.813802083,-15.77270833
2.3786,0.006666667,0.014166667,0.005833333,0.004166667,2.016666667,0.7975,0,-7.176725,6.982141667,40.812875,1.6009375,-0.417760417,-15.7940625
1.5743,8.34E-04,8.34E-04,0.006672227,0.002502085,1.042535446,0.669724771,0,-3.500258549,4.032560467,20.48885738,0.851021685,-0.497810676,-15.89824854
3.4733,0.010833333,0.023333333,0.0375,0.0425,1.683333333,1.135,0,-14.00804167,26.65278333,261.2167917,3.45640625,4.24984375,-13.62338542
2.9729,0.03,0.06,0.035833333,0.035833333,5.025,3.2725,0,3.751275,23.35183333,135.846425,-1.246666667,3.86671875,-14.06005208
3.1669,0.014166667,0.024166667,0.024166667,0.029166667,1.308333333,0.689166667,0,-6.39395,11.62091667,117.1636917,1.4003125,0.88078125,-15.26864583
3.3827,0.008333333,0.0225,0.0275,0.0325,3.441666667,2.029166667,0,-10.062325,13.486925,248.0582167,2.577864583,1.435052083,-15.65239583
1.4297,0.009166667,0.010833333,0.0175,0.011666667,2.266666667,1.5225,0,-6.506108333,3.009516667,159.5745583,1.6471875,-1.524895833,-15.75229167
3.1321,0.016666667,0.018333333,0.03,0.033333333,1.591666667,1.085833333,0,-15.15536667,16.14763333,260.36455,3.958072917,2.042447917,-14.81864583
3.4556,0.011676397,0.01501251,0.019182652,0.016680567,2.643869892,1.281067556,0,-5.069783153,-1.955696414,198.0004254,1.086374062,-2.933590492,-15.54295246
1.9727,0.023333333,0.021666667,0.03,0.0325,1.683333333,1.023333333,8.33E-04,2.955091667,3.560083333,112.11545,-1.208489583,-1.253541667,-15.76484375
3.4702,0.015833333,0.035,0.050833333,0.046666667,2.491666667,1.774166667,0,-6.417116667,13.460575,232.187775,1.400729167,1.317447917,-15.3071875
3.535,0.032527106,0.048373645,0.060050042,0.0558799,2.435362802,1.409507923,0,-18.19878232,5.049040867,165.8075229,4.641055046,-0.742441618,-14.94657006
2.9893,0.005838198,0.020850709,0.014178482,0.014178482,1.234361968,0.688907423,0,-8.648156797,0.651267723,155.9410842,2.082725188,-2.003336113,-15.57980609
3.3691,0.040799334,0.04746045,0.037468776,0.037468776,3.288925895,2.121565362,0,5.354912573,14.11393838,137.6688926,-1.605537052,1.423449209,-14.41860949
3.764,0.020815987,0.04662781,0.032472939,0.026644463,3.380516236,2.360532889,8.33E-04,-0.42376353,24.63877602,261.6507244,-0.06260408,4.748803081,-15.005204
1.8928,0.025,0.061666667,0.061666667,0.06,7.7,4.814166667,0.049166667,-6.19175,28.31100833,176.215575,1.180104167,4.856822917,-13.45796875
2.1135,0.008326395,0.044129892,0.048293089,0.035803497,2.855953372,1.760199833,0,-1.767169026,5.855337219,10.56344713,0.067703997,-0.561303081,-15.98579309
3.2951,0.016666667,0.028333333,0.033333333,0.033333333,4.441666667,2.670833333,0,-13.18345833,24.2269,280.4779583,3.26875,3.943229167,-14.236875
3.3596,0.005,0.016666667,0.016666667,0.016666667,1.591666667,0.77,0,-1.615416667,18.26540833,33.69155833,0.057604167,2.622760417,-15.84536458
3.2939,0.016680567,0.023352794,0.048373645,0.043369475,0.942452043,0.564637198,0,-5.944753962,8.194345288,59.20662219,1.432964971,-0.180984153,-15.81531485
2.1717,0.025833333,0.044166667,0.0675,0.058333333,3.308333333,2.458333333,0,-9.202633333,6.228016667,306.4922833,2.221770833,-0.485729167,-15.60864583
3.3884,0.0225,0.03,0.015833333,0.015,4.433333333,2.339166667,0,-7.769633333,18.12783333,312.95975,1.701927083,2.625520833,-15.55401042
3.5511,0.0125,0.045,0.035,0.035833333,3.291666667,2.055833333,0.005,-12.427175,62.89695833,175.7085667,3.162135417,12.30125,-8.601041667
4.4789,0.02,0.029166667,0.053333333,0.068333333,4.425,2.425,0,-6.358925,15.073425,119.06375,1.363177083,1.613385417,-15.20614583
1.6556,0.026666667,0.045833333,0.05,0.066666667,1.291666667,0.940833333,0,-5.760533333,-0.185783333,310.1878667,1.2884375,-2.313020833,-15.66942708
3.3289,0.001668057,0.01000834,0.021684737,0.007506255,1.1676397,0.875729775,0,-5.206280234,9.245396163,43.57663053,1.047174729,0.140429525,-15.88771893
2.0903,0.011666667,0.030833333,0.030833333,0.031666667,4.6,8.03,0,-4.088591667,12.38238333,286.8238333,0.92703125,1.483020833,-15.69078125
3.2488,0.024166667,0.0275,0.021666667,0.029166667,3.308333333,1.7575,0.0025,-15.53143333,24.62926667,190.8568333,3.92515625,4.183541667,-14.41880208
1.9283,0.0325,0.059166667,0.065,0.055,3.233333333,1.955833333,0,0.648525,17.257525,96.80376667,-0.464375,2.332239583,-15.62572917
3.8173,0.0275,0.019166667,0.0275,0.025,2.4,1.555833333,0,7.59735,20.09776667,131.1367417,-2.51796875,2.961614583,-14.20921875
2.1598,0.05509182,0.095993322,0.078464107,0.068447412,6.969949917,4.839732888,0.087646077,-2.827721202,15.85668614,172.4468364,0.522694073,1.654789232,-14.92357053
1.5365,0.01,0.015833333,0.023333333,0.019166667,2.666666667,1.6925,0,-18.5035,38.590375,236.3345333,4.868697917,7.697864583,-12.97145833
3.0332,0.01,0.0175,0.04,0.044166667,2.658333333,1.935833333,0,-7.138133333,12.82726667,265.5729333,1.562291667,1.28578125,-15.79072917
2.5479,0.011666667,0.013333333,0.006666667,0.014166667,1.058333333,0.5325,0,-8.271166667,4.84645,89.420725,1.939166667,-0.96546875,-15.75760417
1.3318,0.0125,0.021666667,0.005833333,0.009166667,3.3,1.9125,0,-10.51620833,17.641275,319.849,2.481041667,2.650885417,-15.53567708
3.7429,0.0275,0.04,0.0525,0.049166667,2.758333333,1.421666667,0.006666667,-8.358658333,34.331,119.589325,2.038072917,4.763229167,-12.73807292
3.8745,0.0225,0.0425,0.054166667,0.051666667,6.583333333,4.304166667,0.025833333,-9.945116667,44.13246667,238.1816083,2.453125,8.739635417,-12.04067708
1.372,0.010833333,0.0125,0.020833333,0.02,1.2,0.766666667,0,-7.602391667,8.466333333,291.8216167,1.539114583,-0.094427083,-15.86796875
3.1778,0.024166667,0.025833333,0.038333333,0.041666667,5.316666667,3.645833333,0,8.774825,-3.8978,140.8120417,-2.82875,-3.348385417,-15.23348958
2.1316,0.049166667,0.081666667,0.085833333,0.076666667,1.983333333,1.435833333,0,-7.919433333,15.06295,75.93125,2.022604167,1.8325,-15.11359375
1.5799,0.004166667,0.01,0.028333333,0.028333333,2.1,1.741666667,0,-10.14929167,3.55555,160.6242833,2.398541667,-1.396614583,-15.6759375
2.7921,0.01,0.008333333,0.02,0.015,1.516666667,0.809166667,0,-7.458841667,3.352291667,260.956525,1.6053125,-1.453645833,-15.76036458
1.7624,0.023352794,0.025020851,0.047539616,0.047539616,2.301918265,1.266055046,0,-5.244512093,7.57234362,192.2146205,1.23352794,-0.328919933,-15.88469558
2.3051,0.020016681,0.046705588,0.073394495,0.080900751,3.928273561,1.912427023,0.00500417,-5.647864887,18.90606339,79.80729775,1.013865721,2.751563803,-15.20782944
3.437,0.020833333,0.0375,0.024166667,0.026666667,2.9,1.4225,0,-1.904758333,29.98265,69.17970833,0.11015625,5.6396875,-13.99473958
4.5477,0.016666667,0.02,0.004166667,0.0025,2.416666667,1.520833333,0,-11.103975,66.821125,324.5053,2.929010417,13.47057292,-8.205572917
1.8714,0.016666667,0.025,0.030833333,0.0275,3.766666667,2.3075,8.33E-04,0.106558333,9.666883333,97.83381667,-0.406354167,2.481614583,-13.00333333
2.1325,0.011666667,0.028333333,0.044166667,0.049166667,3.483333333,2.269166667,0,-9.904825,10.06336667,239.024,2.277604167,0.226197917,-15.72973958
1.8534,0.015,0.0225,0.0375,0.038333333,2.383333333,1.484166667,0,-10.90745,2.151908333,93.52779167,2.653020833,-1.72734375,-15.56526042
3.3507,0.024979184,0.034970858,0.050791007,0.034970858,3.655287261,4.158201499,0,-18.935204,11.77790175,166.1022148,4.811667361,1.029402581,-14.77909034
1.7618,0.015,0.021666667,0.0275,0.025,1.025,0.655833333,0,-6.692041667,1.979391667,34.756,1.497291667,-1.7796875,-15.73682292
1.6459,0.014166667,0.0275,0.038333333,0.031666667,1.458333333,0.839166667,0.001666667,-3.018691667,12.60463333,340.5566833,0.317291667,1.036041667,-16.01041667
1.803,0.0175,0.024166667,0.0325,0.033333333,1.891666667,1.355833333,0.001666667,-5.584525,2.591741667,95.79580833,1.207083333,-1.674322917,-15.70901042
1.848,0.00500417,0.007506255,0.023352794,0.01501251,4.036697248,2.943286072,0,3.510116764,1.505571309,268.3871726,-1.335227273,-2.133183903,-14.63949124
3.6255,0.01,0.025833333,0.0375,0.044166667,3.325,1.951666667,0.02,-6.846416667,45.25566667,190.1094,1.49203125,8.988958333,-11.40833333
3.2113,0.0475,0.095833333,0.085,0.078333333,1.55,0.904166667,0,-9.026675,16.73954167,72.02968333,2.32484375,2.266458333,-15.08338542
1.4055,0.009166667,0.013333333,0.0175,0.013333333,1.65,1.263333333,0,-7.781675,5.635258333,106.5985,2.1003125,-0.515989583,-15.60166667
3.8263,0.026666667,0.044166667,0.051666667,0.041666667,4.141666667,2.855,0.0025,-15.76451667,27.7288,54.61515,3.688020833,2.948072917,-13.31463542
1.4286,0.005833333,0.008333333,0.005833333,0.005833333,0.908333333,0.521666667,0,-5.0798,6.755091667,34.17761667,1.014895833,-0.595416667,-15.89151042
3.8047,0.025833333,0.045833333,0.038333333,0.034166667,3.575,1.780833333,0.008333333,-11.39320833,8.673275,295.25535,2.72,-0.621666667,-15.17208333
3.0137,0.0175,0.021666667,0.0425,0.0275,1.3,0.701666667,0,-1.776133333,3.390658333,15.880225,0.115572917,-1.227708333,-15.93828125
1.6176,0.0125,0.025,0.036666667,0.031666667,2.308333333,1.301666667,0,-5.710941667,34.016925,81.72759167,1.160364583,6.836197917,-13.71458333
2.4138,0.035803497,0.055786844,0.067443797,0.06244796,3.630308077,2.164862614,0,-20.31873439,7.204371357,165.5666195,5.197179434,-0.175114488,-14.88889467
3.8514,0.028333333,0.071666667,0.0575,0.066666667,4.658333333,2.338333333,0.030833333,-8.4342,35.61783333,183.9332,2.045,6.969270833,-13.1559375
4.9828,0.015833333,0.041666667,0.054166667,0.063333333,6.491666667,3.5225,0.0025,-2.539383333,11.574575,122.1396333,0.3665625,0.725104167,-15.67609375
3.8241,0.0175,0.038333333,0.058333333,0.056666667,3.933333333,2.259166667,0,-3.394191667,11.8761,99.26998333,0.434791667,0.865208333,-15.60651042
2.2084,0.004166667,0.0025,0.010833333,0.0075,1.658333333,0.828333333,0,-7.783491667,6.152058333,36.62970833,1.804583333,-0.640416667,-15.81109375
1.3728,0.01,0.015833333,0.0125,0.0125,2.058333333,1.2325,0,-6.080541667,4.346166667,344.83365,1.356041667,-0.920625,-15.85182292
2.2605,0.040833333,0.096666667,0.094166667,0.08,6.55,4.068333333,0.093333333,-5.339908333,27.30135833,143.803075,1.230416667,4.653072917,-13.87885417
3.5254,0.023352794,0.026688907,0.034195163,0.031693078,2.9441201,1.785654712,0,-1.632610509,6.966497081,113.6849541,0.046757715,-0.220756881,-15.85362802
1.5386,0.019166667,0.021666667,0.030833333,0.0225,1.358333333,0.961666667,0,-3.963508333,8.992916667,331.5183417,0.702916667,0.156822917,-15.87744792
1.8124,0.003333333,0.0125,0.02,0.019166667,3.85,2.666666667,0,-3.033791667,10.88703333,335.4181417,0.347604167,0.723854167,-15.73973958
1.9688,0.020833333,0.06,0.060833333,0.0525,4.891666667,2.708333333,0.033333333,-5.394233333,23.60415,201.1515417,1.215989583,3.695104167,-14.12234375
2.8113,0.013333333,0.0175,0.031666667,0.029166667,3.591666667,1.951666667,0,-31.236125,1.632808333,174.5415333,7.883854167,-1.792291667,-13.59203125
2.7735,0.015,0.035,0.05,0.039166667,4.55,2.793333333,0,-4.689016667,-0.287366667,90.441775,0.873125,-2.278333333,-15.70541667
3.1533,0.006661116,0.013322231,0.016652789,0.016652789,1.39050791,1.014154871,0,-6.476203164,2.313721898,161.3257286,1.644046628,-1.721794338,-15.70899251
1.7981,0.0275,0.030833333,0.026666667,0.025833333,4.633333333,3.259166667,0,13.245175,15.91506667,211.8171333,-4.163229167,1.658333333,-14.84166667
2.7605,0.0125,0.006666667,0.015833333,0.011666667,1.775,1.6825,0,-4.575916667,7.494083333,92.05711667,1.015104167,-0.34484375,-15.8653125
2.1103,0.018333333,0.041666667,0.045,0.040833333,1.958333333,1.000833333,0,-6.4185,1.892175,108.4256417,1.421302083,-1.82125,-15.57692708
1.7953,0.021666667,0.025,0.021666667,0.0275,3.45,2.236666667,0,3.586833333,23.17423333,148.8701167,-1.325364583,4.252447917,-14.49916667
3.1709,0.015833333,0.020833333,0.026666667,0.0275,2.708333333,1.651666667,0,-2.412158333,21.47935,115.1898,0.405104167,3.634322917,-15.48260417
1.3867,0.0125,0.0075,0.0175,0.0225,1.783333333,1.254166667,0,-6.189183333,8.567441667,124.4434167,1.48109375,0.145104167,-15.82604167
1.7398,0.0075,0.009166667,0.008333333,0.005833333,1.291666667,0.7675,0,-5.714725,2.298391667,184.0022,1.2978125,-1.570052083,-15.72640625
2.9974,0.044166667,0.073333333,0.115,0.114166667,5.65,3.916666667,0.044166667,-5.762591667,15.96490833,125.0001,1.231770833,2.060364583,-14.72838542
3.2751,0.009166667,0.034166667,0.0375,0.028333333,2.733333333,1.669166667,0,-8.870091667,15.01420833,282.5963083,1.953854167,1.361510417,-15.06364583
1.6155,0.015833333,0.011666667,0.031666667,0.026666667,3.058333333,1.8125,0,2.68855,22.5853,35.9001,-1.127395833,3.989583333,-15.46140625
1.8192,0.006666667,0.005833333,0.0325,0.033333333,0.758333333,0.525833333,0,-5.273316667,10.57569167,132.5007083,1.135989583,0.545625,-15.8809375
2.8295,0.025,0.055833333,0.073333333,0.08,3.041666667,1.846666667,0,-2.671958333,3.215658333,19.72420833,0.420833333,-1.506666667,-15.91911458
3.0203,0.019150708,0.019150708,0.01498751,0.014154871,5.745212323,3.926727727,8.33E-04,7.907110741,4.479900083,109.6243381,-2.5319005,-1.027633222,-13.89144463
3.1958,0.006672227,0.006672227,0.007506255,0.010842369,1.976647206,1.19266055,0,-6.989649708,3.466830692,223.1830275,1.610404504,-1.436405338,-15.77173686
3.4298,0.025,0.035,0.03,0.028333333,3.5,2.245,0,-5.296316667,13.57844167,272.0216917,0.860104167,1.629375,-15.41807292
2.6777,0.004159734,0.003327787,0.005823627,0.011647255,1.605657238,0.809484193,0,-13.6022629,25.65133943,118.1613478,3.448315308,4.221141847,-13.70491889
3.654,0.014166667,0.020833333,0.034166667,0.045833333,2.991666667,1.975,0,-4.875025,6.918925,212.6438333,1.21328125,-0.389791667,-15.80942708
2.7747,0.01,0.011666667,0.018333333,0.011666667,2.275,1.189166667,0,-6.404166667,4.780133333,348.377825,1.685572917,-0.674479167,-15.76182292
2.9028,0.018333333,0.013333333,0.0225,0.025,1.741666667,1.154166667,0.001666667,-4.808858333,8.088825,57.7389,1.044583333,0.0559375,-15.85421875
3.1437,0.0275,0.0275,0.024166667,0.024166667,3.833333333,2.753333333,0,12.98926667,7.262641667,111.2833583,-3.780677083,-0.499635417,-14.94
2.7767,0.0075,0.015,0.021666667,0.020833333,2.216666667,1.445833333,8.33E-04,-9.796016667,27.91804167,64.69388333,2.345104167,5.074375,-14.1009375
3.2928,0.031666667,0.049166667,0.065833333,0.0725,4.7,2.8925,0,2.98195,20.116675,89.50384167,-1.116354167,3.067864583,-15.20640625
3.9058,0.016666667,0.0275,0.0275,0.036666667,2.475,1.868333333,0,-1.212716667,14.850225,131.326675,0.008802083,1.824322917,-15.30770833
3.283,0.03,0.066666667,0.055,0.060833333,4.85,2.599166667,0.045833333,-4.849366667,30.4347,120.2991083,0.870416667,5.499010417,-13.28046875
1.9503,0.004166667,0.01,0.016666667,0.015,1.6,0.906666667,0,2.758808333,1.960216667,71.701,-0.776510417,-1.410885417,-15.61026042
3.0538,0.013333333,0.020833333,0.021666667,0.025,2.116666667,1.5175,0,-8.104316667,7.353441667,263.9824583,1.869479167,-0.392083333,-15.75598958
3.0219,0.004995837,0.004995837,0.009159034,0.003330558,1.956702748,1.174854288,0,-7.620899251,5.913363863,214.6956453,1.785647377,-0.770191507,-15.805995
3.4967,0.013333333,0.02,0.025,0.025,2.333333333,1.380833333,0,-7.317475,0.665791667,76.960425,1.8625,-2.0934375,-15.66223958
3.1344,0.017485429,0.034138218,0.021648626,0.029975021,3.222314738,1.717735221,0,-2.683139051,25.21836803,36.80669442,0.336750624,4.615788926,-15.2557244
1.4466,0.006666667,0.010833333,0.0225,0.036666667,3.158333333,2.059166667,0,-11.72493333,14.79226667,262.809775,2.941927083,1.744010417,-15.57088542
3.6861,0.025854879,0.027522936,0.041701418,0.041701418,2.693911593,1.546288574,0,-12.7588824,17.88359466,162.6779149,3.065940367,2.470652627,-15.10190784
3.1159,0.011666667,0.020833333,0.016666667,0.013333333,1.425,0.825833333,0,-6.450366667,9.901,98.88603333,1.430989583,0.562083333,-15.86942708
3.3479,0.0325,0.0375,0.0175,0.019166667,3.308333333,2.0575,0,-4.573808333,24.06295833,43.81145833,0.91390625,4.2865625,-15.29958333
2.1381,0.021666667,0.024166667,0.040833333,0.045833333,2.866666667,1.884166667,0,-7.483258333,7.5038,88.7875,1.6753125,-0.309947917,-15.79765625
1.7709,0.0175,0.026666667,0.035,0.05,4.066666667,2.586666667,0,7.489983333,23.629225,166.7956583,-2.316770833,3.908072917,-14.11109375
1.6978,0.025854879,0.043369475,0.029190992,0.018348624,4.995829858,3.968306922,0,-0.827823186,23.83432027,235.2418599,-0.028461218,3.714553795,-14.62781485
1.7459,0.013333333,0.020833333,0.025833333,0.0225,3.208333333,2.1675,0,3.340408333,20.20729167,63.7768,-1.240052083,3.45953125,-15.60098958
3.8069,0.011666667,0.024166667,0.025833333,0.025,3.141666667,1.8075,8.33E-04,-13.34481667,18.51486667,81.51395,3.2803125,6.476927083,-10.13265625
1.6751,0.008333333,0.0175,0.02,0.014166667,1.958333333,1.275833333,0,-5.250666667,5.913058333,91.44574167,1.131875,-0.572239583,-15.855625
3.9993,0.024166667,0.0325,0.049166667,0.041666667,5.008333333,3.405833333,0,-6.0725,8.147325,233.48325,0.985052083,0.038697917,-15.40630208
3.1477,0.01,0.0175,0.02,0.019166667,1.775,1.483333333,0.001666667,-4.840566667,11.43855833,101.2968833,0.96,0.87484375,-15.665
1.4615,0.003333333,0.006666667,0.009166667,0.004166667,1.825,1.099166667,0,-8.387516667,8.903041667,92.031275,1.946614583,0.05046875,-15.78270833
1.2461,0.013333333,0.008333333,0.016666667,0.0175,1.8,1.115833333,0,-12.86595833,10.02745833,57.77269167,3.13703125,0.357708333,-15.54880208
3.536,0.0225,0.035,0.059166667,0.058333333,2.183333333,1.155833333,0,-3.682275,11.82315,301.1646583,0.878489583,1.034322917,-15.471875
4.0751,0.024979184,0.029975021,0.043297252,0.039134055,4.31307244,3.330557868,0,7.200058285,6.503530391,212.7090674,-2.379215237,-0.807452123,-15.49500416
2.7441,0.024166667,0.028333333,0.055833333,0.046666667,1.341666667,0.7725,0,-10.75863333,4.228708333,286.774425,2.678489583,-0.806979167,-15.63057292
2.5095,0.01,0.01,0.015833333,0.015833333,1.608333333,1.03,0,-4.966816667,10.73078333,123.3546167,0.981822917,0.457760417,-15.84161458
2.9414,0.010833333,0.02,0.016666667,0.019166667,2.166666667,1.510833333,0,-4.197858333,7.99965,66.184925,0.876927083,-0.126979167,-15.89947917
1.8775,0.012510425,0.027522936,0.040867389,0.030025021,1.601334445,0.674728941,8.34E-04,-2.892085071,9.273394495,41.59321935,0.441930776,0.224874896,-15.95584862
4.3937,0.029166667,0.05,0.0625,0.0875,4.1,2.396666667,0,-6.6238,11.40919167,110.6054,1.47015625,0.652447917,-15.3240625
2.696,0.013333333,0.0125,0.024166667,0.015,1.283333333,0.615,0,-7.649916667,5.722108333,235.4734417,1.747239583,-0.655364583,-15.70614583
1.8919,0.011666667,0.018333333,0.02,0.0375,4.158333333,2.646666667,0,-12.26723333,14.61035833,245.1122583,3.161354167,1.850572917,-15.21453125
3.5193,0.030833333,0.0375,0.038333333,0.036666667,2.783333333,1.771666667,8.33E-04,-13.280675,27.67960833,306.4774917,3.123229167,4.866875,-14.01177083
3.0861,0.026666667,0.023333333,0.021666667,0.024166667,1.558333333,1.059166667,0,-2.141066667,5.049466667,84.020325,0.548333333,-0.609947917,-15.8715625
3.4128,0.025,0.0275,0.0125,0.023333333,3.158333333,1.84,0,14.78115833,4.581675,134.0993167,-4.504895833,-1.02515625,-15.37651042
3.6093,0.035833333,0.036666667,0.024166667,0.021666667,2.15,1.191666667,0,9.14415,27.8936,177.4948667,-2.89828125,5.400208333,-14.66119792
1.4663,0.014166667,0.015833333,0.021666667,0.021666667,1.383333333,1.019166667,0,-9.563491667,10.25083333,99.03925,2.309635417,0.469010417,-15.72036458
3.0456,0.010833333,0.018333333,0.02,0.0125,2.208333333,1.356666667,0,-10.68106667,32.08454167,193.00425,2.718854167,6.218697917,-14.51723958
3.2569,0.010833333,0.02,0.02,0.016666667,1.858333333,1.691666667,0,2.051341667,19.8727,342.9189583,-1.0078125,3.202135417,-15.661875
2.206,0.016666667,0.014166667,0.030833333,0.028333333,1.716666667,1.2325,0,-10.31888333,35.45698333,261.4056,2.57359375,6.719947917,-13.29723958
3.0963,0.010833333,0.010833333,0.019166667,0.019166667,1.8,1.298333333,0,-7.297433333,3.00445,209.5518333,1.715,-1.4578125,-15.75411458
4.7992,0.03577371,0.065723794,0.09234609,0.098169717,5.490848586,3.441763727,0.024958403,-11.73045757,18.24650582,151.6537188,2.823315308,2.62796381,-14.640703
3.3825,0.010833333,0.019166667,0.026666667,0.035833333,2.491666667,1.449166667,0,-8.494441667,1.031491667,117.2626667,2.0340625,-1.901458333,-15.55026042
2.8802,0.02,0.0225,0.0125,0.014166667,1.2,0.69,0,-8.923425,9.8098,285.1586083,2.0453125,0.462760417,-15.82890625
3.2542,0.003333333,0.015833333,0.024166667,0.023333333,2.325,1.650833333,0,-10.02238333,5.089125,212.15465,2.571822917,-0.802708333,-15.4825
1.8488,0.010842369,0.014178482,0.031693078,0.025854879,2.176814012,1.427856547,0,-3.611501251,4.122793995,88.98661384,0.688542535,-1.066722269,-15.83496664
1.8008,0.005,0.02,0.035833333,0.038333333,3.033333333,1.849166667,0,-14.70925,31.59404167,316.7979583,3.398333333,5.574166667,-14.21072917
3.1383,0.01,0.020833333,0.019166667,0.025,1.858333333,1.185,0,-5.844883333,7.1685,129.540275,1.684635417,0.198541667,-15.78682292
1.8673,0.014166667,0.021666667,0.035833333,0.035,2.675,1.951666667,0.004166667,-1.220483333,17.20183333,176.9332083,-0.079635417,2.414479167,-15.47817708
3.1362,0.010833333,0.013333333,0.013333333,0.023333333,3.358333333,2.071666667,0,-7.008416667,2.462566667,48.9993,1.560416667,-1.530833333,-15.62609375
3.7751,0.0125,0.019166667,0.010833333,0.018333333,0.925,0.515833333,0,-9.265458333,44.743675,237.047475,2.16140625,8.345520833,-11.31979167
3.3441,0.015,0.0325,0.050833333,0.045,4.466666667,2.404166667,0.029166667,-9.9748,29.59009167,136.401325,2.393229167,5.443125,-13.59567708
1.981,0.0175,0.033333333,0.040833333,0.030833333,6.1,4.6275,0,2.39025,-0.375375,254.830375,-1.256770833,-2.644635417,-15.54859375
1.6593,0.020833333,0.018333333,0.039166667,0.03,3.375,2.055,0,-21.114625,13.08011667,162.1293917,5.335416667,0.974947917,-14.47145833
1.8855,0.025,0.0425,0.040833333,0.046666667,3.866666667,2.870833333,0,5.517075,21.849825,108.6027,-2.125677083,3.29984375,-14.42979167
2.9613,0.014166667,0.02,0.019166667,0.020833333,2.375,1.664166667,0,-11.531325,30.51555,47.92739167,2.9296875,5.65828125,-14.03104167
1.7462,0.013333333,0.016666667,0.030833333,0.023333333,1.908333333,1.07,0,-4.857858333,4.505325,182.172375,1.173697917,-1.104739583,-15.75848958
1.9046,0.0075,0.015833333,0.009166667,0.0075,1.75,0.95,0,0.398966667,8.659666667,39.18960833,-0.339791667,0.192395833,-15.86125
3.2008,0.013333333,0.02,0.031666667,0.026666667,2.458333333,1.62,0,-8.580008333,-0.178733333,150.1467333,2.127395833,-2.09671875,-15.52213542
2.2616,0.006666667,0.025,0.018333333,0.034166667,3.841666667,2.381666667,0,-7.970375,2.341408333,106.147525,1.756770833,-1.688229167,-15.72348958
3.1111,0.019166667,0.025833333,0.023333333,0.0225,2.916666667,2.015833333,0,-0.419375,31.32848333,35.18530833,-0.27171875,5.494479167,-13.9671875
3.5145,0.028356964,0.037531276,0.045037531,0.049207673,2.894078399,1.616346956,0.00500417,-22.52252711,39.02371143,307.8327606,5.687864887,7.263292327,-12.4653357
3.2204,0.018333333,0.028333333,0.020833333,0.02,4.4,2.950833333,0,3.116583333,1.30865,141.2963833,-1.225520833,-1.98203125,-15.273125
1.6973,0.005,0.025,0.029166667,0.019166667,1.858333333,1.095833333,0,-2.520533333,9.687216667,338.59305,0.187916667,0.254635417,-16.00619792
3.1551,0.038333333,0.0525,0.061666667,0.055,1.7,1.095,0,-7.556725,11.73195833,65.97094167,1.938541667,0.97046875,-15.44359375
3.0809,0.0075,0.0175,0.025,0.020833333,1.183333333,0.71,0,-12.53620833,20.980625,297.471175,3.176510417,3.68375,-15.14114583
2.1522,0.033333333,0.055833333,0.079166667,0.075833333,3.316666667,2.376666667,0.014166667,-6.374875,35.6927,94.84,1.46546875,6.948854167,-13.13213542
2.9026,0.011666667,0.02,0.03,0.0275,1.725,1.3775,0,-6.705066667,-0.785108333,119.7349333,1.197604167,-2.260625,-15.42078125
2.9981,0.015833333,0.015,0.024166667,0.021666667,5.058333333,3.659166667,0,-22.80736667,10.23396667,205.5647083,5.690572917,0.5096875,-14.39333333
2.945,0.014166667,0.0275,0.015833333,0.019166667,2.483333333,1.621666667,0,-12.03395833,3.380608333,244.496475,2.834322917,-1.310833333,-15.56260417
4.2818,0.050041701,0.097581318,0.115929942,0.091743119,4.278565471,3.072560467,0,-6.982435363,16.96162636,291.6998582,1.612802335,2.295558799,-14.99197248
1.5007,0.009174312,0.016680567,0.013344454,0.016680567,1.301084237,0.854045038,0,-3.510141785,26.57231026,97.77286072,0.458715596,4.990252294,-15.18145329
3.0856,0.015,0.020833333,0.018333333,0.015833333,3.275,2.238333333,0,-5.886016667,18.77801667,276.6492417,1.355,2.868854167,-15.15489583
4.3,0.02,0.053333333,0.0775,0.080833333,4.725,2.78,0.029166667,-5.131725,24.06225,163.4112583,1.132239583,3.703125,-13.94088542
2.3637,0.021666667,0.03,0.056666667,0.063333333,3.116666667,2.250833333,8.33E-04,-24.7302,7.666175,173.345375,6.31828125,0.010625,-14.24286458
3.2648,0.026688907,0.049207673,0.024186822,0.017514595,2.168473728,1.160967473,0.002502085,-9.283135947,30.63848207,41.73412844,2.23837573,5.840961218,-14.41117598
3.4248,0.0325,0.048333333,0.068333333,0.075833333,4.133333333,2.3575,0.018333333,-9.555275,38.48558333,116.35445,2.248177083,6.9403125,-12.14453125
3.4713,0.024166667,0.035,0.0625,0.074166667,2.575,2.2375,0,-3.916366667,2.97205,257.59465,0.670208333,-1.64359375,-15.80692708
1.5797,0.011666667,0.018333333,0.019166667,0.015833333,2.033333333,1.3725,0,-4.981341667,3.75165,345.1451,1.285729167,-1.291354167,-15.8296875
1.8439,0.018333333,0.019166667,0.023333333,0.015,1.308333333,0.913333333,0,-9.565325,34.17835833,155.9371417,2.386666667,6.505260417,-13.91671875
3.509,0.026666667,0.041666667,0.0475,0.058333333,0.625,0.395,0,-4.434066667,18.81974167,128.3025417,1.16734375,2.960208333,-15.09494792
3.4791,0.018333333,0.018333333,0.0375,0.050833333,4.566666667,2.846666667,0,-13.083275,22.18973333,319.5435333,3.100729167,3.52453125,-14.62755208
3.1666,0.0175,0.016666667,0.019166667,0.0125,1.116666667,0.715833333,8.33E-04,-9.227016667,25.57906667,155.659275,2.081041667,4.403958333,-14.14307292
3.6987,0.037468776,0.053288926,0.044962531,0.04746045,4.229808493,2.786844296,0,-21.98906744,3.032481266,139.6153872,5.589040383,-1.229808493,-14.52508326
1.975,0.010833333,0.015833333,0.018333333,0.020833333,0.75,0.400833333,0,-13.165675,6.896283333,305.5361833,3.38203125,-0.2928125,-15.44479167
2.9266,0.019166667,0.021666667,0.0225,0.028333333,3.875,2.57,0,7.197083333,24.63844167,118.6012583,-2.356770833,4.406145833,-14.69635417
2.6853,0.0425,0.06,0.078333333,0.074166667,3.491666667,1.863333333,0.0025,-24.66175833,3.036658333,157.6871333,6.248802083,-1.56640625,-14.26145833
1.8821,0.005833333,0.0125,0.019166667,0.013333333,1.3,0.8625,0,-0.444758333,5.5131,293.4160667,-0.208541667,-0.9540625,-15.93958333
1.5647,0.017514595,0.021684737,0.007506255,0.010842369,1.451209341,0.98999166,0,-7.158273561,6.414153461,98.58220183,1.843463303,-0.385373228,-15.7655859
3.0476,0.019166667,0.019166667,0.031666667,0.0225,4.525,3.6575,0,11.58825833,6.563225,251.4999167,-3.68625,-0.35375,-15.38515625
3.1147,0.019166667,0.025,0.044166667,0.031666667,4.291666667,2.256666667,0,-28.28774167,2.241366667,192.4083167,7.211354167,-1.495677083,-13.92484375
1.7459,0.011666667,0.01,0.019166667,0.0375,3.758333333,2.5425,0,-6.33585,12.71916667,103.8491917,1.336041667,1.2028125,-15.36276042
3.2713,0.015833333,0.02,0.025833333,0.025833333,1.35,0.895,0,-7.005408333,14.01834167,106.17855,1.588177083,1.36953125,-15.04640625
2.0993,0.033333333,0.054166667,0.073333333,0.069166667,4.366666667,2.963333333,0.006666667,0.756633333,50.71618333,195.5124333,-0.429947917,9.695833333,-10.053125
3.4974,0.025833333,0.03,0.033333333,0.023333333,1.425,0.78,0,-8.161033333,18.00013333,333.1039583,2.058489583,2.739895833,-15.57864583
3.0569,0.018333333,0.014166667,0.009166667,0.005833333,1.158333333,0.536666667,0,-16.38661667,29.635825,266.7707333,4.152239583,5.473385417,-14.10479167
1.8105,0.008340284,0.018348624,0.044203503,0.024186822,1.909924937,1.262718932,0,-14.24733111,25.93104254,244.278407,3.723415346,4.625677648,-14.66128023
3.2904,0.006666667,0.021666667,0.02,0.013333333,1.2,0.821666667,0,-15.68125,43.71486667,62.86098333,4.175052083,9.036145833,-12.48973958
2.5518,0.0225,0.03,0.0525,0.043333333,5.933333333,6.279166667,0,-23.85350833,13.17324167,178.209875,6.138489583,1.09515625,-14.31760417
4.0877,0.030833333,0.045,0.060833333,0.058333333,4.083333333,2.514166667,0,-17.75984167,7.276966667,112.9855667,4.483333333,-0.278645833,-15.09536458
3.222,0.0125,0.014166667,0.009166667,0.020833333,2.908333333,2.211666667,0,12.32958333,0.700125,135.809525,-3.788489583,-2.049583333,-15.3003125
2.833,0.021666667,0.015833333,0.0225,0.021666667,3.35,2.384166667,0,-5.396425,22.955975,108.5361167,1.126822917,4.098697917,-15.29942708
1.9408,0.024166667,0.03,0.033333333,0.026666667,0.991666667,0.558333333,0,-3.425683333,7.31265,84.15604167,0.532291667,-0.24953125,-15.94265625
3.0794,0.020833333,0.041666667,0.059166667,0.055,2.5,1.604166667,0.001666667,-5.58975,25.16085,73.19475,1.41953125,4.461145833,-14.16744792
2.8637,0.030833333,0.04,0.024166667,0.0325,2.866666667,1.44,0,-3.379375,35.9056,343.9462417,0.856041667,6.876666667,-14.16026042
2.7651,0.006666667,0.0175,0.02,0.020833333,2.516666667,1.549166667,0,-7.264841667,6.11695,324.3531083,1.382708333,-0.38734375,-15.7028125
1.545,0.01,0.023333333,0.015,0.0125,1.441666667,0.865,0,-13.80406667,7.980725,59.15088333,3.51421875,-0.006145833,-15.49739583
2.9415,0.013333333,0.0175,0.016666667,0.0175,1.133333333,0.783333333,0,-2.800858333,7.158075,78.5587,0.727135417,-0.029375,-15.87947917
2.931,0.011656953,0.010824313,0.024979184,0.023313905,3.080766028,1.800999167,0,-2.149750208,20.82393006,109.7176686,0.324937552,3.557556203,-14.74745004
3.3717,0.0175,0.0225,0.036666667,0.040833333,2.225,1.465833333,0,-6.247766667,3.22695,164.5745833,1.29296875,-1.361979167,-15.72385417
2.426,0.015,0.020833333,0.049166667,0.044166667,1.25,0.538333333,0,-0.4347,41.46508333,253.9376833,-0.2746875,8.948802083,-12.96635417
1.716,0.0125,0.020833333,0.038333333,0.030833333,1.95,1.110833333,0,-10.28675833,9.00385,193.5837,2.360052083,0.24140625,-15.73734375
3.0644,0.013333333,0.025833333,0.015,0.013333333,2.841666667,1.869166667,0,-6.26765,30.00014167,264.8622417,1.43140625,5.69578125,-14.77161458
2.1616,0.015,0.026666667,0.039166667,0.040833333,1.375,0.754166667,0.001666667,-8.806441667,27.99115833,219.097725,1.934479167,5.281822917,-14.80770833
1.7935,0.009174312,0.038365304,0.025854879,0.030859049,3.803169308,2.664720601,0,-14.74930776,22.60213511,199.633553,3.947143453,3.907631359,-14.85274187
3.5302,0.0225,0.0225,0.019166667,0.018333333,3.208333333,2.085833333,0,-7.112758333,16.79348333,250.2070917,1.593229167,2.542864583,-15.36255208
3.6604,0.016666667,0.0225,0.031666667,0.0275,2.425,1.919166667,0,3.122591667,4.232141667,114.7839833,-1.127916667,-1.108697917,-15.8775
1.9344,0.010833333,0.0225,0.031666667,0.0275,4.658333333,2.91,0,9.521475,-4.379883333,115.7736917,-3.111927083,-3.430364583,-15.29890625
3.2003,0.014166667,0.014166667,0.0225,0.031666667,1.508333333,0.95,0,-5.77785,4.923391667,36.63643333,1.450364583,-1.099791667,-15.74953125
1.6862,0.0075,0.011666667,0.020833333,0.010833333,1.966666667,1.039166667,0,-4.184566667,7.929566667,229.3132,0.827447917,-0.221510417,-15.9371875
3.5592,0.018333333,0.031666667,0.028333333,0.028333333,2.125,1.4375,0,-1.789358333,26.985525,89.64839167,-0.104010417,4.96546875,-14.84447917
2.4788,0.035833333,0.060833333,0.055,0.055833333,3.116666667,1.658333333,0.0025,-22.361475,8.180758333,131.885,5.738541667,0.038177083,-14.53130208
2.9074,0.015,0.011666667,0.0275,0.029166667,4.583333333,2.893333333,0,3.75535,15.76498333,139.3782333,-1.269375,1.976302083,-14.23619792
2.9234,0.005833333,0.019166667,0.010833333,0.021666667,1.55,1.423333333,0,-7.764891667,24.80400833,112.057825,1.81109375,4.392760417,-15.22864583
3.4355,0.023333333,0.054166667,0.030833333,0.028333333,5.191666667,2.989166667,0,6.338683333,16.315775,162.4956583,-1.9875,2.212239583,-15.06640625
1.7655,0.015833333,0.0175,0.020833333,0.03,4.2,2.0875,0,2.531275,35.85056667,153.53015,-1.010625,7.2396875,-13.81744792
1.5303,0.011666667,0.02,0.043333333,0.030833333,2.133333333,1.051666667,0,-5.247975,12.64179167,342.5104833,0.919270833,1.03875,-15.98802083
2.1416,0.012510425,0.030859049,0.029190992,0.048373645,2.368640534,1.60383653,0,-8.967914929,32.06661384,116.6975646,2.181661802,6.18765638,-14.08423686
1.9066,0.010833333,0.020833333,0.016666667,0.015,1.758333333,1.05,0,-18.26655,34.95849167,144.9354333,4.730572917,6.816614583,-13.65244792
3.7685,0,0,0.055555556,0.222222222,14.72222222,5.972222222,0.083333333,-4.821388889,13.87166667,30.97638889,2.305555556,0.005208333,-15.55034722
2.6547,0.0125,0.014166667,0.026666667,0.018333333,1.241666667,0.8825,0,-11.181725,25.95603333,302.2291833,2.673802083,4.865833333,-14.84817708
3.2537,0.0275,0.048333333,0.048333333,0.038333333,3.166666667,2.026666667,0,-6.452533333,13.904975,111.434925,1.397864583,1.397239583,-15.05666667
2.0721,0.024979184,0.039134055,0.044129892,0.044129892,3.830141549,2.071606994,0,5.081140716,62.57832639,113.6711574,-1.464196503,12.57816403,-8.655235221
4.4972,0.030833333,0.053333333,0.081666667,0.080833333,6.766666667,4.634166667,0.0225,-3.880808333,9.392041667,110.0306417,0.6346875,0.23546875,-15.64729167
2.7652,0.015,0.013333333,0.016666667,0.021666667,3.125,1.815833333,0,-4.947558333,38.10595833,41.95670833,1.028020833,7.57546875,-13.61135417
2.3819,0.01,0.008333333,0.014166667,0.016666667,1.383333333,0.838333333,0,-6.280008333,12.47979167,181.695925,1.46546875,1.139791667,-15.84619792
1.787,0.010833333,0.005,0.011666667,0.011666667,2.958333333,1.976666667,0,7.999916667,-6.022958333,44.97901667,-2.542447917,-3.946197917,-15.02786458
3.5234,0.014166667,0.02,0.030833333,0.02,1.608333333,1.251666667,0,-6.904025,32.57425,289.8261,1.474166667,6.649635417,-14.42395833
1.5809,0.009166667,0.0125,0.020833333,0.015833333,2.091666667,1.598333333,0,-7.110033333,13.98493333,107.25375,1.68953125,1.550052083,-14.94416667
3.0752,0.005,0.020833333,0.020833333,0.016666667,1.05,0.595833333,0,-8.311116667,10.50859167,121.770225,2.069583333,0.777708333,-15.624375
3.6422,0.015,0.018333333,0.018333333,0.025833333,4.166666667,3.0225,0,6.543716667,0.622,141.7565833,-2.299895833,-2.171041667,-14.97854167
2.9812,0.003333333,0.006666667,0.015833333,0.015833333,2.358333333,1.93,0,-2.891133333,6.321583333,174.013425,0.57375,-0.637239583,-15.95208333
1.362,0.00500417,0.017514595,0.025854879,0.020850709,1.801501251,1.595496247,0,-8.546513761,12.2389241,351.6849958,2.010685988,1.04602794,-15.64944746
2.9508,0.008333333,0.015833333,0.021666667,0.015833333,2.883333333,1.9425,0,-4.094775,7.904675,141.2978333,0.834010417,-0.4584375,-15.89567708
1.764,0.006666667,0.0175,0.018333333,0.018333333,1.441666667,1.0975,0,-9.879691667,26.54770833,12.14755833,1.956197917,5.13484375,-14.98119792
1.7274,0.0225,0.020833333,0.023333333,0.018333333,2.308333333,1.480833333,0,-3.757116667,34.238625,12.989325,0.5946875,7.1365625,-14.34072917
3.0149,0.019182652,0.030025021,0.05087573,0.063386155,4.829024187,4.051709758,0,-0.579074229,32.16379483,158.9899166,-0.188751043,6.468411176,-13.95011468
3.8206,0.0125,0.0175,0.036666667,0.035833333,1.741666667,0.981666667,0,0.295091667,40.273075,302.3334167,-0.484947917,8.0696875,-13.45203125
3.4885,0.011666667,0.014166667,0.009166667,0.010833333,0.633333333,0.389166667,0,-8.832975,46.25661667,248.6289083,2.00109375,9.525885417,-12.36411458
3.1133,0.0225,0.021666667,0.0175,0.016666667,3.433333333,2.283333333,0,-2.832816667,21.418625,331.5396,0.661197917,3.547239583,-15.43703125
1.6574,0.013333333,0.023333333,0.018333333,0.02,1.8,1.154166667,0,-8.444258333,12.71771667,75.3862,2.02359375,1.215989583,-15.745
3.3505,0.0075,0.018333333,0.019166667,0.018333333,2.558333333,1.8825,0,-12.432675,53.146325,262.8281,3.187916667,10.75,-11.31828125
3.0894,0.013333333,0.018333333,0.016666667,0.0175,1.866666667,1.019166667,0,-1.3655,22.78644167,72.96020833,0.001458333,3.972239583,-15.43828125
1.89,0.006661116,0.01498751,0.016652789,0.019983347,2.223147377,1.048293089,0,-1.739891757,18.49380516,134.537169,-0.070305995,2.710397585,-15.11672565
1.8857,0.02,0.035,0.048333333,0.040833333,1.591666667,0.963333333,0,-5.141125,2.417366667,119.4375167,1.019010417,-1.837604167,-15.66630208
2.1766,0.024166667,0.028333333,0.028333333,0.025,1.458333333,0.9725,0,2.367675,24.317875,167.4590833,-1.092395833,4.430364583,-15.01645833
2.1592,0.019166667,0.0225,0.018333333,0.011666667,2.65,1.701666667,0,3.997141667,-4.407791667,157.360525,-1.414739583,-3.402604167,-15.04776042
2.1332,0.024166667,0.028333333,0.036666667,0.034166667,3.333333333,2.493333333,0,-4.277608333,23.52053333,275.9576333,0.75875,4.018177083,-14.85677083
3.1423,0.010824313,0.011656953,0.028309742,0.028309742,3.430474604,2.603663614,0,-4.258001665,0.429500416,102.6093505,0.835709825,-2.194213156,-15.66980641
2.8595,0.014166667,0.013333333,0.031666667,0.028333333,1.841666667,0.915,0,-4.453083333,6.393641667,68.295225,1.032291667,-0.656770833,-15.87838542
1.6617,0.015859766,0.015859766,0.017529215,0.013355593,1.652754591,1.198664441,0.005843072,-5.752929883,6.626368948,96.77020033,1.237270451,-0.33832429,-15.83415067
2.4409,0.005833333,0.004166667,0.015,0.013333333,1.4,0.866666667,0,-10.02911667,5.306125,173.3228,2.6096875,-0.887083333,-15.66765625
3.1976,0.0175,0.020833333,0.0475,0.0325,1.95,1.056666667,0,-9.073466667,36.83281667,223.7588,2.120416667,6.675989583,-12.446875
2.6209,0.005,0.0075,0.008333333,0.0075,1.241666667,0.733333333,0,-2.942541667,7.985075,38.63591667,0.585729167,0.00515625,-15.92270833
1.5726,8.33E-04,0.006666667,0.006666667,0.013333333,2.325,1.3525,0,2.252366667,27.5945,75.66323333,-0.939895833,5.212083333,-14.90984375
2.8508,0.022481266,0.016652789,0.034138218,0.03080766,2.880932556,1.842631141,0,-12.42935054,28.34029975,190.9198251,3.131973356,5.196919234,-14.6932244
3.791,0.0375,0.046666667,0.071666667,0.061666667,3.016666667,1.645833333,0,-28.337125,3.01765,149.8592583,7.211927083,-1.165885417,-13.93239583
1.546,0.01,0.014166667,0.01,0.01,2.008333333,1.325,0,-6.654666667,12.80668333,271.6792167,1.468385417,1.09390625,-15.69348958
1.9388,0.015833333,0.018333333,0.038333333,0.023333333,1.183333333,0.873333333,0,-12.14746667,24.32488333,225.0306583,2.928541667,4.290260417,-14.92776042
2.545,0.010833333,0.01,0.015833333,0.014166667,2.175,1.604166667,0,-5.732408333,32.17546667,13.75173333,1.31265625,6.1778125,-14.4115625
4.0498,0.024166667,0.029166667,0.053333333,0.054166667,3.3,2.015833333,0.015,-6.016708333,12.951,202.6268,1.344791667,1.106875,-14.94864583
1.6373,0.009166667,0.01,0.009166667,0.013333333,1.95,1.06,0,-10.84061667,3.784425,167.80855,2.566041667,-1.070572917,-15.56046875
2.1054,0.010833333,0.014166667,0.02,0.0275,1.491666667,0.904166667,0,6.643116667,19.57458333,153.9601167,-2.1403125,3.115364583,-15.11510417
3.0783,0.019150708,0.016652789,0.04746045,0.04662781,2.855953372,1.938384679,0,-3.042622814,1.348917569,336.6433805,0.517901749,-2.026748543,-15.55453789
3.2822,0.03,0.073333333,0.065833333,0.076666667,1.891666667,1.115833333,0,-14.72674167,19.93699167,91.895275,3.54921875,2.81625,-14.38973958
1.6119,0.01,0.0225,0.023333333,0.020833333,2.125,1.440833333,0,-11.60985833,5.725091667,95.83879167,2.787239583,-0.892604167,-15.60098958
2.0273,0.016680567,0.022518766,0.027522936,0.020850709,1.476230192,0.801501251,0,-16.67130108,37.34109258,133.6730776,4.267462469,7.248853211,-13.4690367
3.1495,0.004166667,0.006666667,0.018333333,0.015833333,3.991666667,2.689166667,0,-5.107233333,52.554875,29.598425,1.146302083,11.03104167,-11.32625
1.8164,0.015833333,0.0225,0.0075,0.0075,3.091666667,1.9675,0,12.382125,-14.823925,78.20795833,-3.887760417,-6.017447917,-14.14244792
2.5742,0.026666667,0.03,0.016666667,0.015833333,2.566666667,1.813333333,0,-3.211108333,21.91478333,338.1968917,0.4771875,3.705104167,-15.46645833
2.8513,0.005833333,0.010833333,0.0175,0.015833333,1.283333333,1.189166667,0,-7.357066667,14.54029167,128.1900667,1.633229167,1.596927083,-15.66536458
3.0146,0.015,0.02,0.066666667,0.05,2.641666667,1.9325,0,-0.767208333,15.58630833,228.2003,-0.139010417,1.83703125,-15.76359375
1.7537,0.015,0.019166667,0.030833333,0.018333333,2.008333333,1.245,0,-6.928625,3.752525,224.17585,1.608020833,-1.241875,-15.78104167
1.5501,0.006666667,0.009166667,0.004166667,0.005833333,2.075,1.465,0,-5.290266667,7.484358333,269.7556833,1.35546875,0.193802083,-15.86515625
3.0278,0.004166667,0.018333333,0.015,0.015833333,1.683333333,1.049166667,0,-7.411675,4.135366667,265.8264083,1.49078125,-1.090833333,-15.70567708
1.4121,0.008333333,0.011666667,0.010833333,0.0075,1.566666667,1.069166667,0,-3.257833333,26.65765833,83.98715,0.580208333,4.99109375,-15.15447917
3.1181,0.030833333,0.048333333,0.075,0.079166667,2.808333333,1.8225,8.33E-04,-1.364875,24.63825833,280.7301333,0.1559375,4.59296875,-14.85848958
4.2625,0.035645472,0.034682081,0.064547206,0.08477842,3.815028902,2.535645472,0.026974952,-9.574315992,38.30851638,269.1519171,2.45327553,7.331105491,-12.84940992
3.1542,0.015,0.028333333,0.031666667,0.025833333,2.558333333,1.885,0,-4.055375,7.8849,169.9911333,0.7915625,-0.170260417,-15.84541667
3.2614,0.01,0.02,0.029166667,0.035833333,1.608333333,1.0225,0,-5.471166667,12.7219,96.63191667,1.26890625,1.143072917,-15.79171875
3.4476,0.016680567,0.032527106,0.046705588,0.053377815,4.395329441,3.405337781,0,9.37617181,-8.326130108,115.8025855,-3.075114679,-4.491816097,-14.95157423
1.5566,0.0025,0.001666667,0.0125,0.006666667,2.566666667,1.868333333,0,-2.874508333,6.302741667,56.62821667,0.408072917,-0.528958333,-15.96385417
2.0251,0.009166667,0.018333333,0.030833333,0.030833333,2.091666667,1.4775,0,-5.736733333,7.834716667,147.01445,1.152291667,-0.215208333,-15.85958333
2.9089,0.023333333,0.018333333,0.019166667,0.0275,3.091666667,2.170833333,0,8.6598,-31.80751667,219.9696833,-2.676979167,-9.657135417,-11.85453125
3.6417,0.011666667,0.033333333,0.029166667,0.028333333,2.133333333,1.198333333,0,-2.055308333,28.22869167,49.08631667,0.214895833,5.630989583,-14.84776042
1.3323,0.004163197,0.005828476,0.004995837,0.006661116,1.915070774,1.393005828,0,-6.494437968,17.80032473,122.4163447,1.486573689,2.715705662,-15.38358659
3.301,0.010833333,0.028333333,0.034166667,0.0225,2.891666667,2.075833333,0,-9.581533333,38.85039167,288.3227667,2.380052083,7.280677083,-12.53828125
3.1474,0.019182652,0.025854879,0.039199333,0.049207673,2.585487907,1.351125938,0,-8.941092577,7.69028357,231.1411676,2.168786489,-0.239366138,-15.59940575
3.387,0.01582015,0.022481266,0.041631973,0.027477102,1.756869276,0.807660283,0,-4.506894255,6.851956703,343.0130724,0.735480849,-0.552924646,-15.96227102
3.0763,0.035523979,0.055062167,0.088809947,0.085257549,7.85079929,6.454706927,0.062166963,-5.914564831,21.27920071,118.186643,1.153530195,3.427730906,-14.5008881
1.8588,0.01,0.013333333,0.024166667,0.023333333,1.35,0.720833333,0.001666667,-6.675125,3.07575,257.7704917,1.454114583,-1.44390625,-15.72302083
2.8279,0.013333333,0.019166667,0.0275,0.031666667,1.45,0.970833333,8.33E-04,-8.09095,3.9409,293.6737333,1.784270833,-1.320677083,-15.73213542
1.6904,0.014166667,0.0175,0.025833333,0.024166667,1.4,0.7975,0,-8.818175,3.738933333,14.66369167,1.994322917,-1.31625,-15.69109375
3.3532,0.010842369,0.010842369,0.015846539,0.019182652,2.176814012,1.188490409,0.002502085,-21.50206005,38.8924854,107.116814,5.598102585,6.79910342,-12.87750209
2.3602,0.027522936,0.044203503,0.071726439,0.052543786,3.953294412,2.442035029,0,-14.47924103,22.66700584,191.1413761,3.613844871,3.661071726,-14.73050459
1.6369,0.01,0.006666667,0.020833333,0.01,0.983333333,0.453333333,0,-2.279458333,18.42620833,95.711675,0.435885417,2.9553125,-15.55963542
1.7884,0.008333333,0.006666667,0.0225,0.0225,2.633333333,1.580833333,0,-16.5956,41.062725,164.057825,4.11390625,8.450625,-12.35395833
3.3671,0.014166667,0.026666667,0.024166667,0.019166667,1.216666667,0.5825,0,-10.58374167,7.082958333,281.5131583,2.470364583,-0.467604167,-15.6553125
3.3425,0.031666667,0.045833333,0.054166667,0.055,5.666666667,3.928333333,0,4.13835,3.274041667,175.3927417,-1.505416667,-1.289635417,-15.12416667
3.0349,0.020238095,0.030952381,0.014285714,0.011904762,1.821428571,1.080952381,0,-15.5330119,30.67572619,99.06054762,3.957440476,5.878348214,-14.25066964
3.2025,0.010842369,0.019182652,0.026688907,0.015846539,1.417848207,1,0,1.494870726,3.019157631,118.7443536,-0.787479149,-1.302595913,-15.15794412
1.6173,0.0075,0.0175,0.030833333,0.015833333,0.633333333,0.489166667,0,-5.699858333,11.26570833,233.2876667,1.2378125,0.71453125,-15.77911458
2.1572,0.006666667,0.005,0.013333333,0.005,0.808333333,0.458333333,0,-7.9251,8.284058333,102.0284,1.856510417,-0.001145833,-15.79041667
2.8342,0.010833333,0.02,0.015833333,0.015,1.416666667,1.065833333,0,-4.115875,7.265575,117.3968333,0.918333333,-0.101145833,-15.83770833
4.7039,0.033361134,0.051709758,0.063386155,0.059216013,4.011676397,2.354462052,0,-24.63389491,16.88,119.0348791,6.222998332,1.955796497,-14.04055463
2.2429,0.014178482,0.019182652,0.027522936,0.031693078,2.47706422,1.382819016,0,-4.075829858,1.773594662,245.5038365,0.895120934,-1.547748123,-15.73920976
2.0867,0.018333333,0.030833333,0.029166667,0.0325,2.216666667,1.6025,0,-9.23575,3.991416667,94.81469167,2.231041667,-1.016302083,-15.66609375
3.4391,0.005838198,0.006672227,0.013344454,0.014178482,1.334445371,0.758965805,0,-5.638732277,3.969791493,212.1060717,1.244266055,-1.308486239,-15.65643244
3.3927,0.040833333,0.045833333,0.02,0.0325,3.408333333,2.384166667,0,10.29210833,-1.459916667,173.62185,-3.234166667,-2.5015625,-15.1846875
2.6447,0.01,0.008333333,0.0125,0.015,1.591666667,0.965833333,0,-6.726666667,0.7937,206.052675,1.54015625,-2.045989583,-15.6259375
2.1084,0.023333333,0.0425,0.033333333,0.033333333,6.633333333,5.596666667,0,-5.410316667,26.8575,322.7419667,1.2015625,5.020052083,-14.90901042
3.0421,0.006666667,0.01,0.021666667,0.015833333,1.733333333,1.050833333,0,-5.697066667,2.8937,274.8397333,1.22640625,-1.32078125,-15.76578125
1.6059,0.005,0.005,0.006666667,0.008333333,1.75,1.168333333,0,-7.562541667,7.662575,263.8648,1.96015625,-0.1325,-15.77463542
3.412,0.0125,0.021666667,0.02,0.028333333,0.825,0.549166667,0,-2.972033333,29.5794,93.1655,0.48671875,5.949270833,-14.85489583
3.3655,0.0175,0.0275,0.019166667,0.018333333,3.725,3.650833333,0.003333333,-12.42829167,64.953925,119.7259333,3.338072917,12.8778125,-8.525364583
3.8745,0.051666667,0.094166667,0.156666667,0.088333333,7.383333333,4.761666667,0.103333333,-2.795233333,16.56856667,289.2554417,0.6534375,2.270104167,-15.35630208
3.4704,0.015846539,0.019182652,0.039199333,0.036697248,1.7764804,1.247706422,8.34E-04,0.755546289,12.78640534,232.9568891,-0.609831109,1.092837781,-15.81745204
3.5081,0.034166667,0.030833333,0.029166667,0.021666667,2.466666667,1.671666667,0,-0.504791667,23.297525,46.49315,-0.222447917,3.930520833,-15.29338542
2.3893,0.034166667,0.039166667,0.0425,0.048333333,1.975,1.105833333,0.006666667,-14.70195,18.12406667,140.56485,3.71203125,2.509375,-13.65958333
2.0085,0.014166667,0.030833333,0.035,0.044166667,1.483333333,0.62,0,-4.285291667,0.572608333,313.6747667,0.770572917,-2.069166667,-15.76119792
3.8702,0.026666667,0.055833333,0.075,0.07,3.566666667,2.921666667,0.035833333,-4.189616667,35.7735,226.6512167,0.69390625,6.9640625,-12.79927083
1.9842,0.021666667,0.016666667,0.0425,0.0475,2.1,1.254166667,0,-10.45326667,6.984283333,205.58475,2.350052083,-0.29578125,-15.52369792
3.4709,0.041666667,0.079166667,0.095833333,0.110833333,6.15,3.533333333,0.013333333,-12.48450833,31.67825,172.6186583,3.110989583,5.710677083,-13.53916667
1.8,0.01,0.0175,0.023333333,0.018333333,0.658333333,0.39,0,-7.344941667,30.633525,112.211775,1.709635417,6.1328125,-14.69645833
3.5019,0.011666667,0.025,0.0225,0.025,1.45,0.839166667,0,-6.070733333,10.61493333,223.1398833,1.396666667,0.691666667,-15.7834375
2.8639,0.011666667,0.011666667,0.016666667,0.0225,3.091666667,1.784166667,0,4.616075,15.2072,83.18170833,-1.62703125,1.80203125,-15.325625
3.7478,0.010833333,0.026666667,0.045833333,0.050833333,2.083333333,1.5825,0,-9.791966667,4.821883333,241.4335167,2.4678125,-0.861145833,-15.67510417
3.1428,0.033333333,0.068333333,0.065,0.075,2.75,1.355833333,0,-7.255375,15.98199167,68.62015,1.858958333,2.083645833,-15.15098958
2.8818,0.0125,0.0225,0.02,0.02,2.958333333,2.2375,0,-10.04849167,27.75208333,259.7074667,2.3378125,4.945989583,-14.29208333
4.5153,0.0225,0.053333333,0.07,0.081666667,4.658333333,2.4025,0.016666667,-9.791016667,27.76043333,110.9694167,2.445572917,4.54359375,-13.52390625
2.9202,0.010833333,0.018333333,0.024166667,0.024166667,2.475,1.3375,0,-6.326608333,7.128058333,286.1928,1.503541667,-0.348229167,-15.86270833
3.0324,0.0075,0.013333333,0.016666667,0.024166667,1.608333333,0.885833333,0,-7.540125,16.726925,262.1409917,1.859895833,2.015520833,-14.40130208
2.7853,0.0075,0.015,0.015833333,0.019166667,2.275,1.741666667,0,-7.125416667,8.894241667,281.5361417,1.543697917,0.084895833,-15.87875
1.854,0.026666667,0.031666667,0.035,0.034166667,4.275,2.6875,0,-0.3333,27.01571667,157.95645,-0.299739583,4.194739583,-12.9965625
3.8682,0.014975042,0.031613977,0.045757072,0.047420965,2.396006656,1.660565724,0.004991681,-11.20287022,44.32603993,297.315,2.821807404,9.049812812,-12.27209859
3.586,0.025,0.039166667,0.026666667,0.035833333,3.666666667,1.703333333,0,0.2381,28.34541667,266.5390167,-0.4928125,5.2971875,-14.62703125
2.9336,0.020833333,0.0375,0.021666667,0.023333333,4.208333333,2.4,0,11.19745833,17.86578333,167.7744083,-3.508958333,2.312395833,-14.07015625
2.7037,0.008333333,0.0175,0.019166667,0.026666667,5.791666667,4.1875,0,19.26193333,5.593525,85.359125,-5.716614583,-0.787552083,-14.99265625
3.4601,0.004995837,0.01582015,0.038301415,0.041631973,3.330557868,1.818484596,0,-8.653863447,6.07244796,94.2231557,1.864696087,-0.632389675,-15.78403414
2.802,0.005,0.013333333,0.0225,0.019166667,4.108333333,2.631666667,0.001666667,-6.3007,29.4183,195.6248417,1.36359375,5.637916667,-14.82208333
4.0882,0.026666667,0.056666667,0.055,0.049166667,4.408333333,2.809166667,0.026666667,-6.754291667,45.02855833,212.2911417,1.427239583,8.74515625,-11.921875
3.897,0.038333333,0.08,0.093333333,0.1025,5.383333333,4.201666667,0.0125,3.783941667,12.57659167,139.5384333,-1.368645833,0.899739583,-15.12046875
2.3316,0.01,0.005,0.005833333,0.0075,3.416666667,2.333333333,0,-13.33338333,31.768975,260.6397333,3.347760417,6.102239583,-14.40265625
2.7798,0.015833333,0.02,0.0225,0.028333333,2.516666667,1.3525,0,-2.766216667,19.2674,74.284475,0.439375,3.144270833,-15.20921875
1.8073,0.019182652,0.025854879,0.051709758,0.047539616,2.193494579,1.565471226,0.003336113,-3.364153461,13.38822352,276.5977565,0.490565054,1.20219975,-15.72232068
1.5117,0.006666667,0.008333333,0.015,0.010833333,1.583333333,1.156666667,0,-6.8715,29.04093333,249.7706083,1.536666667,5.56515625,-14.81614583
3.213,0.02,0.035,0.033333333,0.025833333,3.325,2.008333333,0,-6.348966667,24.69440833,290.6014333,1.343854167,4.391458333,-15.06588542
3.489,0.025833333,0.044166667,0.084166667,0.083333333,5.175,2.938333333,0,-16.8422,24.17199167,160.8154167,4.021197917,3.850625,-13.68036458
3.9363,0.031666667,0.074166667,0.049166667,0.065833333,3.316666667,1.916666667,0.048333333,-7.175791667,30.35886667,132.1179,1.704791667,5.382135417,-13.589375
2.7349,0.015833333,0.0125,0.0225,0.018333333,2.65,1.893333333,0,-3.7144,24.1443,44.54246667,0.661822917,4.223802083,-15.37927083
3.0974,0.005833333,0.011666667,0.019166667,0.018333333,1.516666667,0.739166667,0,-2.926558333,2.816166667,262.8897583,0.685625,-1.32515625,-15.89130208
3.8421,0.014166667,0.0275,0.033333333,0.0425,3.091666667,1.789166667,0,-5.484716667,43.216275,325.22105,1.275260417,9.096145833,-12.9178125
2.0075,0.006666667,0.014166667,0.015,0.0075,1.166666667,0.761666667,0,-7.646841667,6.526616667,85.54675833,1.767239583,-0.437239583,-15.72411458
2.3262,0.024166667,0.039166667,0.041666667,0.035,3.141666667,2.16,0,-0.442916667,19.43558333,270.0584417,-0.07671875,3.04390625,-15.69302083
2.9359,0.003336113,0.01000834,0.007506255,0.008340284,2.310258549,1.455379483,0,1.208273561,15.40756464,137.6796831,-0.710540033,2.046653461,-15.60248123
2.7314,0.006666667,0.013333333,0.015,0.0125,6.55,3.8275,0,-21.82553333,2.472916667,198.2201083,5.783854167,-1.622083333,-14.48375
2.6141,0.005,0.013333333,0.015,0.011666667,1.15,0.7175,0,-3.90855,5.058825,277.6461417,0.638489583,-0.956979167,-15.88
3.064,0.006666667,0.005,0.010833333,0.0025,1.391666667,0.795833333,0,-11.53804167,9.05385,222.7752083,2.844427083,0.056927083,-15.48604167
3.0224,0.014190317,0.022537563,0.019198664,0.021702838,1.444073456,0.910684474,0,-21.06424875,34.41603506,114.3619449,5.460715776,6.671640234,-13.36983514
3.3863,0.01,0.024166667,0.015833333,0.0225,1.358333333,0.970833333,0,-9.027675,28.8373,113.7850667,2.23328125,5.431875,-14.66484375
2.7957,0.008333333,0.01,0.01,0.015,3.216666667,2.023333333,0,0.345141667,17.26845,134.8656167,-0.494322917,2.39171875,-15.68588542
1.9454,0.020850709,0.021684737,0.023352794,0.017514595,3.819849875,2.632193495,0,5.414795663,5.775738115,128.736789,-1.82073603,-0.681818182,-14.84315054
2.004,0.0175,0.023333333,0.041666667,0.041666667,2.291666667,1.630833333,0,-2.244975,9.482258333,77.33464167,0.178645833,0.3575,-15.965
2.6951,0.006666667,0.004166667,0.01,0.011666667,2.2,1.295833333,0,-8.115583333,4.028525,261.4760083,1.944947917,-1.453385417,-15.61458333
3.2529,0.014166667,0.0125,0.023333333,0.03,1.925,1.206666667,0,-8.343258333,4.760025,168.7843833,2.147447917,-1.037760417,-15.69833333
3.3563,0.013333333,0.019166667,0.016666667,0.0175,2.833333333,1.715833333,0,5.362608333,19.5461,159.1265167,-1.8321875,2.97171875,-15.30838542
1.8492,0.022518766,0.032527106,0.027522936,0.030859049,4.645537948,3.062552127,0,8.13559633,-8.611109258,160.5684237,-2.521111343,-4.334914512,-14.64876981
3.0713,0.0225,0.018333333,0.024166667,0.0275,1.741666667,0.76,0,-1.753183333,6.740266667,229.2900083,0.15328125,-0.56109375,-15.82953125
3.5002,0.0275,0.029166667,0.026666667,0.034166667,4.325,2.865,0,-2.973183333,-5.484316667,124.067875,0.447916667,-3.607083333,-15.09880208
3.8218,0.029166667,0.046666667,0.075,0.078333333,4.075,3.420833333,0.034166667,-7.480858333,34.76374167,209.9663667,1.77375,6.51390625,-12.80515625
1.0387,0.004166667,0.0075,0.006666667,0.013333333,3.216666667,2.194166667,0,-10.86323333,15.0834,121.8763833,2.6590625,1.916354167,-15.43328125
2.2658,0.029166667,0.033333333,0.023333333,0.023333333,4.608333333,2.795,0,-21.41586667,10.36074167,246.6740083,5.40796875,0.71125,-13.88864583
2.7041,0.004166667,0.0075,0.005,0.0025,1.175,0.745833333,0,-22.7498,57.91295833,256.0551583,5.95609375,10.13520833,-8.576614583
1.619,0.008333333,0.020833333,0.023333333,0.01,2.441666667,1.751666667,0.0025,-9.440758333,4.672583333,124.0209833,2.24296875,-1.029583333,-15.60510417
3.2544,0.013333333,0.018333333,0.019166667,0.019166667,1.758333333,1.006666667,0,2.227791667,24.444,113.7256667,-1.100052083,4.325260417,-14.6109375
2.6107,0.009166667,0.0075,0.026666667,0.020833333,3.35,2.468333333,0,-12.27334167,2.892391667,155.105775,2.862916667,-1.327604167,-15.30786458
2.22,0.039166667,0.0625,0.076666667,0.068333333,1.533333333,0.996666667,0,-11.6223,9.872766667,73.19480833,2.6584375,0.395572917,-15.28270833
2.9445,0.019166667,0.025833333,0.041666667,0.044166667,2.333333333,1.75,0,-8.706216667,36.44418333,161.503425,2.06375,7.2975,-13.84864583
2.8417,0.03,0.03,0.015,0.016666667,2.958333333,1.731666667,0,4.623875,18.41835833,205.7459083,-1.22828125,2.922760417,-14.51166667
2.6515,0.015833333,0.019166667,0.019166667,0.011666667,2.041666667,1.513333333,0,0.026,21.50509167,47.30485,-0.3053125,3.695989583,-15.54036458
3.0573,0.005833333,0.014166667,0.025,0.025,1.333333333,0.8925,0,-2.457841667,4.3662,74.41999167,0.633541667,-0.796666667,-15.84265625
4.1762,0.039232053,0.069282137,0.087646077,0.101836394,4.18196995,2.68196995,0.014190317,-11.20772955,23.48525042,235.859783,2.795388147,3.934265442,-14.2140025
2.5608,0.006672227,0.012510425,0.00500417,0.008340284,3.919933278,2.417014178,0,12.95681401,-9.53205171,88.26646372,-4.457099666,-4.895225188,-14.46742077
2.343,0.010833333,0.015,0.015833333,0.020833333,2.7,1.650833333,0,-15.3187,60.230275,116.4071333,4.026875,12.1003125,-9.575572917
3.5304,0.010833333,0.015833333,0.0175,0.015,2.641666667,1.676666667,0,5.896133333,39.12878333,198.946675,-1.942395833,7.69890625,-13.02166667
4.2666,0.008333333,0.005833333,0.011666667,0.0125,3.716666667,2.493333333,0,-6.676575,48.8567,332.386025,1.476927083,10.15963542,-12.11635417
3.1183,0.015,0.025,0.018333333,0.018333333,1.483333333,0.868333333,0.0025,-10.04045,25.89326667,263.9986667,2.383958333,4.32984375,-14.41390625
1.5032,0.0125,0.0125,0.008333333,0.010833333,2.366666667,1.299166667,0,-17.597625,29.78565833,97.74009167,4.449166667,5.61671875,-14.10479167
2.9368,0.021666667,0.0425,0.023333333,0.016666667,4.925,2.971666667,0,3.174733333,5.310708333,155.6348667,-1.369947917,-0.8578125,-14.56458333
4.3318,0.023333333,0.033333333,0.0225,0.034166667,2.566666667,1.795833333,0,6.539075,-1.229483333,136.7893417,-2.135729167,-2.71171875,-15.48098958
3.6762,0.005,0.0125,0.036666667,0.043333333,2.366666667,1.845833333,0,-3.476025,15.281375,224.7247917,0.50234375,1.934427083,-15.81598958
3.5361,0.011666667,0.021666667,0.040833333,0.035,3.6,2.776666667,0,2.960025,1.833458333,247.0865667,-1.334947917,-1.462864583,-15.62619792
2.741,0.015833333,0.018333333,0.030833333,0.039166667,2.533333333,1.441666667,0,-8.893241667,10.38044167,253.6157917,2.29015625,0.557239583,-15.73921875
2.9231,0.023333333,0.038333333,0.04,0.038333333,3.175,1.981666667,0,-4.100341667,26.93275833,186.6746583,0.8371875,5.15953125,-15.075625
2.4082,0.003333333,0.004166667,0.011666667,0.005833333,2.7,1.635,8.33E-04,-17.48844167,53.74219167,93.53609167,4.543125,10.396875,-10.44739583
2.0152,0.008333333,0.010833333,0.023333333,0.0225,1.6,1.091666667,0,-5.841275,36.161325,268.6890333,1.322291667,7.327916667,-14.02583333
2.1039,0.019166667,0.028333333,0.016666667,0.015833333,3.325,2.141666667,0,-3.478683333,24.117625,34.92625,0.561145833,4.287604167,-15.38625
2.682,0.006666667,0.009166667,0.01,0.005833333,1.783333333,1.14,0,-8.3241,4.929675,61.20538333,1.961979167,-0.649947917,-15.72697917
1.9856,0.0225,0.014166667,0.03,0.035833333,1.7,1.055,8.33E-04,-9.659125,5.525425,235.100975,2.237552083,-0.949270833,-15.71520833
3.1583,0.01,0.019166667,0.025,0.023333333,3.183333333,2.3025,0,0.684558333,3.453208333,339.8078667,-0.424895833,-1.31234375,-15.57
1.7388,0.016666667,0.0175,0.018333333,0.0175,2.941666667,2.480833333,0,-2.2697,21.62008333,80.71289167,-0.005520833,3.509739583,-15.48234375
3.0562,0.00500417,0.012510425,0.026688907,0.023352794,3.511259383,2.080066722,0,2.817614679,4.98705588,129.5503837,-1.297435363,-0.846955796,-15.18692661
3.2665,0.011666667,0.0275,0.0425,0.0225,2.566666667,1.286666667,0,-3.0237,42.19983333,221.3368083,0.637916667,8.61515625,-13.27427083
3.1656,0.014166667,0.013333333,0.02,0.014166667,1.308333333,0.7625,0,4.960391667,-0.3665,302.8480833,-1.625260417,-2.468854167,-15.764375
2.496,0.006666667,0.016666667,0.058333333,0.058333333,3.483333333,2.711666667,0,-0.097216667,13.21299167,216.9633167,-0.191197917,1.228020833,-15.92385417
2.3402,0.005833333,0.001666667,0.0075,0.0075,2.166666667,1.4275,0,-8.3182,10.97395833,298.055525,1.997604167,0.694947917,-15.824375
3.0552,0.011676397,0.025854879,0.035029191,0.034195163,3.17764804,1.640533778,0,-11.98574646,28.58105922,144.7233528,2.891367807,4.896736864,-13.59492285
3.5464,0.005571031,0.027855153,0,0.002785515,0.752089136,0.805013928,0.005571031,2.497660167,-12.39660167,319.4794986,0.10132312,0.325034819,-15.3189415
3.326,0.03,0.043333333,0.0575,0.059166667,3.225,1.89,0,-5.943483333,2.710191667,253.009025,1.3046875,-1.71703125,-15.76177083
2.5036,0.004166667,0.0125,0.016666667,0.013333333,2.558333333,1.700833333,0,-8.631575,37.3358,65.643725,2.084322917,7.694427083,-13.15958333
2.0587,0.024166667,0.033333333,0.0425,0.039166667,2.741666667,2.309166667,0,-5.700008333,32.07018333,216.0481167,0.984791667,6.157708333,-14.07619792
2.9344,0.050041701,0.104253545,0.112593828,0.099249374,7.856547123,6.772310259,0.100083403,-1.997464554,4.860316931,137.0231026,0.003283987,-1.357537531,-15.64147206
2.1352,0.0225,0.0375,0.051666667,0.043333333,3.175,1.655833333,0.025,-4.830766667,40.0571,117.968375,1.124166667,8.034270833,-12.72734375
3.1834,0.009174312,0.018348624,0.012510425,0.01501251,1.175979983,0.660550459,0,2.077589658,-0.052318599,301.9659049,-0.906901585,-2.401741034,-15.83418474
2.2958,0.010833333,0.011666667,0.023333333,0.0225,1.491666667,1.034166667,0,-8.184491667,15.5967,283.4591417,1.8503125,1.876510417,-15.73078125
2.8261,0.0175,0.024166667,0.014166667,0.014166667,2.483333333,1.583333333,0,0.831708333,29.04169167,36.69550833,0.329427083,5.039635417,-15.14708333
2.6587,0.016666667,0.020833333,0.034166667,0.019166667,1.683333333,1.03,0,-7.369325,29.901775,96.54489167,1.786927083,5.8678125,-14.79640625
2.851,0.045,0.053333333,0.050833333,0.0525,4.85,3.13,8.33E-04,-10.09158333,8.949675,130.2475917,2.332291667,0.013020833,-14.79958333
2.6781,0.0075,0.013333333,0.021666667,0.019166667,1.991666667,1.445,0,-1.025175,21.205775,66.666525,-0.182604167,3.523229167,-15.56453125
3.0866,0.005,0.018333333,0.015,0.009166667,0.883333333,0.569166667,0,1.741633333,-0.433441667,307.9875333,-0.716770833,-2.446770833,-15.83791667
4.3029,0.034166667,0.039166667,0.048333333,0.058333333,3.975,2.688333333,0,-15.873625,2.020883333,109.344975,4.199322917,-1.632916667,-14.90921875
3.1367,0.022518766,0.039199333,0.039199333,0.035029191,4.787322769,3.076730609,0,10.44181818,3.704937448,260.1400834,-3.375729775,-0.939063803,-15.23847998
4.2707,0.0175,0.045833333,0.0325,0.045833333,3.208333333,2.188333333,0,-12.302075,37.77904167,164.658725,3.063541667,6.8853125,-11.71041667
1.8497,0.006661116,0.010824313,0.010824313,0.018318068,1.748542881,1.135720233,0,-6.932264779,4.694263114,41.63850125,1.84393214,-0.369483764,-15.79522273
2.9881,0.04,0.050833333,0.066666667,0.058333333,2.825,1.369166667,0.001666667,-18.29780833,12.48289167,172.6130667,4.675052083,1.20859375,-14.98354167
3.1033,0.031693078,0.063386155,0.052543786,0.048373645,3.17764804,1.311926606,0,-22.4018849,5.756088407,145.4747123,5.751146789,-0.580483736,-14.59257715
2.9237,0.011666667,0.005,0.045,0.0425,1.825,1.2475,0,-4.1342,11.84065,139.2515083,0.716927083,1.146927083,-15.88963542
2.2514,0.020833333,0.038333333,0.035,0.0425,1.366666667,0.905833333,0,-10.512425,11.875725,212.45695,2.591666667,0.956875,-15.4721875
2.7724,0.008333333,0.020833333,0.024166667,0.03,6.425,4.7875,0,10.19378333,8.305666667,133.078025,-3.225,-0.1115625,-15.1796875
2.4383,0.003333333,0.005,0.015833333,0.006666667,1.775,1.351666667,0,-6.700825,2.566225,162.568125,1.703072917,-1.648125,-15.72958333
3.0271,0.020833333,0.024166667,0.029166667,0.0275,1.766666667,1.141666667,0,-5.943641667,8.694233333,132.0716417,1.276145833,0.207708333,-15.82708333
2.2431,0.031666667,0.040833333,0.013333333,0.016666667,2.675,1.8975,0,12.7027,-12.4693,68.65013333,-4.354895833,-5.452447917,-14.40453125
1.8462,0.014166667,0.016666667,0.035,0.024166667,3.066666667,1.895833333,0,-24.71769167,13.94816667,165.3206417,6.514583333,1.521302083,-14.25583333
2.9921,0.006666667,0.0075,0.019166667,0.016666667,1.2,0.668333333,0,-8.551925,24.63663333,165.5157667,2.037135417,4.440052083,-14.80489583
3.5202,0.010833333,0.015833333,0.025,0.014166667,1.333333333,0.9,0,-4.766625,4.538375,89.50094167,1.006145833,-0.950572917,-15.62729167
3.4598,0.01,0.02,0.021666667,0.026666667,1.958333333,1.210833333,0,-4.410658333,7.175791667,240.0063167,0.998802083,-0.381875,-15.889375
3.0239,0.01,0.015,0.025833333,0.03,0.891666667,0.529166667,0,-1.421058333,25.05118333,72.61040833,-0.061510417,4.546614583,-15.28875
2.2393,0.013322231,0.024146545,0.032472939,0.029142381,5.162364696,3.51540383,0,10.68736053,-0.053272273,258.3399084,-3.335345545,-2.335917985,-15.47705037
2.5142,0.006666667,0.021666667,0.028333333,0.02,0.708333333,0.3775,0,-5.527641667,8.014133333,272.06705,0.7621875,0.007708333,-16.02932292
2.7894,0.008333333,0.015833333,0.031666667,0.0275,2.191666667,1.3425,0,-10.61324167,25.94596667,169.9429,2.490520833,4.669427083,-14.88328125
3.4072,0.020833333,0.054166667,0.073333333,0.075,4.775,2.6575,0.018333333,-6.804341667,6.549366667,251.6115583,1.535729167,-0.609427083,-15.60463542
2.8938,0.005833333,0.010833333,0.009166667,0.008333333,1.125,0.681666667,0,-5.466641667,37.30165833,178.8595167,1.148177083,7.864270833,-13.8634375
3.3717,0.004170142,0.007506255,0.019182652,0.012510425,2.36030025,1.610508757,0,-5.594445371,1.206597164,164.5338032,1.399968724,-2.024030442,-15.71919308
3.4497,0.027477102,0.052456286,0.068276436,0.075770192,4.887593672,3.561199001,0,1.071482098,-0.043180683,146.939642,-0.661896336,-2.456962948,-15.58315987
2.9244,0.015833333,0.023333333,0.029166667,0.03,1.491666667,0.694166667,0,-4.86145,6.136058333,101.43725,0.98703125,-0.707083333,-15.87651042
1.8246,0.016666667,0.025,0.019166667,0.025,4.308333333,3.025,0,19.35156667,5.394166667,137.7579333,-5.52578125,-0.63671875,-14.4715625
2.2674,0.039166667,0.063333333,0.056666667,0.0475,4.025,2.8925,0.058333333,-4.291183333,21.29235,170.2057917,0.939947917,3.073229167,-14.25828125
2.7629,0.008333333,0.009166667,0.025833333,0.015,2.141666667,1.323333333,0,-3.817858333,3.4515,93.62788333,1.00234375,-1.14546875,-15.7940625
2.158,0.02,0.0275,0.023333333,0.025,2.883333333,1.788333333,0,-2.729766667,12.97134167,145.7329583,0.2675,1.193489583,-15.74880208
3.0083,0.010842369,0.029190992,0.040033361,0.031693078,2.777314429,1.158465388,0,-4.852293578,4.335621351,15.74679733,0.80603628,-1.031797331,-15.98514387
2.7132,0.009166667,0.010833333,0.011666667,0.016666667,2.208333333,1.51,0,-16.83486667,42.21804167,88.64318333,4.12765625,7.922864583,-11.80807292
2.4738,0.03,0.050833333,0.0625,0.058333333,2.458333333,1.505,0.01,-7.796858333,18.0274,257.01395,1.864947917,2.5803125,-14.16963542
3.5541,0.008333333,0.014166667,0.020833333,0.021666667,2.016666667,1.726666667,0,6.582258333,38.87778333,305.5705917,-2.085833333,7.916197917,-13.75984375
1.4715,0.005828476,0.011656953,0.022481266,0.017485429,1.881765196,1.211490425,0,-7.837260616,4.800291424,351.4107077,1.766808909,-1.008014155,-15.59684638
5.4291,0.023333333,0.036666667,0.049166667,0.0775,3.908333333,2.43,0.003333333,-8.750333333,11.1091,48.21405,2.104270833,0.649375,-15.44671875
3.8292,0.024166667,0.034166667,0.055,0.054166667,3.808333333,2.361666667,0.015833333,-8.640508333,37.10929167,256.1086667,2.1190625,7.361041667,-13.24317708
1.8926,0.013333333,0.0125,0.0125,0.020833333,1.683333333,0.94,0,-9.912875,2.72375,177.7210917,2.227239583,-1.494895833,-15.64817708
2.5347,0.006666667,0.014166667,0.0225,0.03,2.325,1.6,0,-8.61115,8.615841667,232.0273167,2.039791667,0.07078125,-15.81911458
2.9073,0.003333333,0.013333333,0.008333333,0.0125,1.458333333,1.080833333,0,-2.60365,22.65799167,114.08255,0.35875,4.019010417,-15.3934375
2.4131,0.003333333,0.005833333,0.016666667,0.016666667,3.758333333,2.710833333,0,13.45210833,14.4944,273.3429583,-4.15140625,1.381979167,-14.80484375
2.8277,0.013333333,0.021666667,0.031666667,0.0325,4.6,3.265,0,2.633375,19.60970833,132.6393333,-1.164479167,2.91703125,-14.81161458
2.9889,0.033361134,0.044203503,0.034195163,0.024186822,3.052543786,2.422018349,0,-1.760116764,18.78728941,251.7627106,0.181088407,2.974770642,-15.14903044
3.1813,0.02,0.036666667,0.03,0.0175,1.783333333,1.2575,0,0.72725,2.935158333,327.77235,-0.439583333,-1.476770833,-15.89380208
2.6342,0.016666667,0.0325,0.056666667,0.04,1.708333333,0.961666667,0,-7.159541667,37.6886,255.7837917,1.716979167,7.583802083,-12.79416667
3.1338,0.02,0.038333333,0.049166667,0.044166667,2.325,1.333333333,0,-5.564441667,4.884566667,65.69725833,1.34046875,-1.073229167,-15.69614583
3.5826,0.021666667,0.010833333,0.033333333,0.051666667,1.55,0.9775,0,-4.691216667,4.689058333,262.5049167,0.954427083,-1.083020833,-15.9096875
1.8572,0.016666667,0.034166667,0.045833333,0.035833333,3.866666667,2.318333333,0,-3.0614,28.34899167,164.9673083,0.418385417,5.118125,-14.01276042
4.1613,0.025833333,0.019166667,0.021666667,0.018333333,2.441666667,1.549166667,0,-2.48675,61.75681667,311.97035,0.616145833,12.939375,-9.40515625
2.9718,0.018333333,0.019166667,0.0425,0.038333333,4.233333333,2.7,0,-20.440675,13.66135,176.8501583,5.228802083,1.277864583,-14.71067708
3.4273,0.011676397,0.013344454,0.017514595,0.01501251,0.884070058,0.525437865,0,-8.142969141,1.671401168,232.9132444,1.929316097,-1.958767723,-15.64861343
1.3462,0.003333333,0.005833333,0.011666667,0.0075,2.208333333,1.703333333,0,-8.849425,4.2092,330.0608,2.142395833,-1.022552083,-15.64885417
2.8095,0.024146545,0.034138218,0.028309742,0.029142381,3.330557868,1.717735221,0.003330558,-20.95547044,47.12791007,92.15517902,5.417880933,7.354756453,-10.86287469
2.0543,8.33E-04,0.009166667,0.01,0.005,1.65,0.975,0,-2.312683333,5.695258333,267.5838667,0.29921875,-0.81796875,-15.85958333
2.8047,0.0175,0.0275,0.045833333,0.038333333,1.875,1.149166667,0,-7.286375,7.479141667,17.83620833,1.462552083,-0.359739583,-15.71291667
3.2212,0.014166667,0.0125,0.0225,0.02,3.05,2.189166667,0,3.635108333,27.3186,146.0412833,-1.418802083,5.00046875,-13.65119792
2.8864,0.01501251,0.032527106,0.041701418,0.048373645,2.977481234,1.633027523,0,-27.57437865,41.56204337,129.169658,7.157214345,7.472789825,-11.33293369
2.9936,0.011666667,0.0175,0.0175,0.0175,0.991666667,0.65,0,-9.508966667,6.408075,315.1232833,2.219322917,-0.678072917,-15.6596875
2.5743,0.005,0.008333333,0.013333333,0.011666667,1.941666667,1.495833333,0,-2.6317,9.585783333,289.958025,0.40765625,0.195,-15.97364583
2.9743,0.013333333,0.01,0.025833333,0.0175,0.808333333,0.4975,0,-7.071291667,29.04218333,95.86283333,1.63,5.495416667,-14.94572917
2.7214,0.005833333,0.02,0.028333333,0.0275,1.441666667,1.010833333,0,-11.764775,32.36478333,70.25220833,2.993854167,6.387083333,-14.27333333
3.3521,0.015,0.04,0.018333333,0.0375,2.875,2.058333333,0,-1.838241667,-10.1604,116.3701833,-0.093020833,-5.092291667,-14.97317708
3.3107,0.013333333,0.015833333,0.024166667,0.025,2.058333333,1.344166667,0,-8.987658333,6.228366667,315.1066167,2.362395833,-0.5103125,-15.69864583
1.8197,0.020833333,0.018333333,0.028333333,0.020833333,2.2,1.284166667,0.001666667,-15.49983333,36.997125,87.05788333,3.598489583,6.99796875,-13.8184375
3.6836,0.021684737,0.025020851,0.027522936,0.025854879,2.527105922,2.00500417,0,-7.319082569,11.05419516,143.7739033,1.682704337,0.648926188,-15.71882819
2.9828,0.018333333,0.0225,0.021666667,0.02,4.241666667,2.715,0,-9.106516667,29.82115833,277.5826,1.967083333,5.341614583,-14.22463542
2.8918,0.006672227,0.019182652,0.040033361,0.035863219,1.909924937,1.115095913,0,-1.344170142,6.471959967,291.8942952,-0.112385321,-0.316305254,-15.99687239
3.0453,0.0175,0.025833333,0.039166667,0.028333333,2.875,2.2275,8.33E-04,-3.454875,10.56671667,256.323825,0.757916667,0.905729167,-15.54171875
2.3431,0.020833333,0.016666667,0.035833333,0.05,2.441666667,1.6275,0,-7.427258333,3.936033333,235.9779333,1.604635417,-1.459947917,-15.77572917
1.9186,0.020016681,0.011676397,0.033361134,0.029190992,1.609674729,1.16263553,0,-5.082785655,10.3517598,101.4390575,0.895798582,0.419307756,-15.88912636
3.2679,0.01,0.044166667,0.0325,0.040833333,2.325,2.171666667,0,-16.10635833,38.25475,253.3141667,3.9771875,7.555364583,-13.45520833
3.057,0.0075,0.008333333,0.008333333,0.005,0.941666667,0.595833333,0,-6.995916667,0.137483333,172.29705,1.56078125,-2.191354167,-15.62390625
3.6028,0.011666667,0.035833333,0.0475,0.041666667,2.5,1.691666667,0,1.518008333,3.251616667,343.172175,-0.9621875,-1.572708333,-15.95541667
3.4835,0.020833333,0.0475,0.069166667,0.074166667,2.266666667,1.1075,8.33E-04,-7.7258,14.60575,31.17556667,2.08390625,1.877083333,-15.46442708
2.5004,0.0125,0.015,0.019166667,0.025,2.141666667,1.535833333,0,-6.055541667,29.51426667,13.730375,1.3728125,5.622552083,-14.87364583
2.6639,0.0075,0.020833333,0.035833333,0.040833333,5.333333333,4.1975,0,-12.13685,29.76725,275.8062167,2.992916667,5.515729167,-14.55572917
2.4201,0.018333333,0.016666667,0.026666667,0.023333333,2.35,1.550833333,0,-2.826116667,53.55054167,111.6784917,0.401510417,10.99197917,-11.03614583
2.7023,0.004995837,0.007493755,0.027477102,0.01498751,1.432139883,0.980849292,0,-2.291623647,5.310890924,281.9914988,0.311146961,-1.002654038,-15.938801
1.8839,0.01498751,0.014154871,0.026644463,0.024979184,2.40632806,1.467110741,0,-12.04879267,39.62408826,38.21714405,2.920222731,7.440206078,-12.78944629
4.1012,0.03,0.0875,0.110833333,0.115833333,6.141666667,3.293333333,0.02,-7.961275,21.01583333,141.0517917,1.786302083,3.034791667,-13.75802083
1.8851,0.010833333,0.011666667,0.029166667,0.031666667,1.866666667,1.114166667,8.33E-04,-5.378691667,8.439883333,44.54834167,1.185572917,0.564375,-15.83260417
3.004,0.011666667,0.009166667,0.045,0.05,3.016666667,2.4375,0,-2.837866667,15.81895,206.8445583,0.5690625,1.929947917,-15.85927083
3.6918,0.005833333,0.006666667,0.015833333,0.0125,3.041666667,2.015,0,-0.243983333,40.42329167,307.9863,-0.272708333,8.43515625,-13.65744792
3.9006,0.0075,0.014166667,0.010833333,0.01,1.9,1.338333333,0,-4.496083333,6.061683333,233.9625833,0.82734375,-0.827552083,-15.90083333
2.68,0.005,0.0125,0.0325,0.034166667,3.35,3.98,0,-12.378375,26.36214167,243.2308,3.317708333,4.583854167,-13.94911458
3.113,0.018348624,0.037531276,0.045037531,0.036697248,5.979983319,4.521267723,0,2.397831526,-6.443577982,212.8233111,-1.13646789,-3.781276063,-15.19328607
2.8833,0.005833333,0.02,0.0325,0.015833333,6.35,3.981666667,0,6.017066667,-2.333316667,136.788625,-2.04515625,-2.98625,-15.2071875
2.5846,0.004166667,0.0025,0.003333333,8.33E-04,1.391666667,0.975833333,0,-2.865675,20.60488333,10.2184,0.419479167,3.51453125,-15.61078125
3.6538,0.014166667,0.053333333,0.066666667,0.068333333,3.258333333,2.1375,0,-4.226216667,6.172441667,44.90685,0.952864583,-0.362760417,-15.85328125
3.9299,0.0075,0.011666667,0.005,0.008333333,1.916666667,1.1675,0,-16.03616667,63.29473333,211.5529083,4.1796875,12.72010417,-8.860885417
2.1448,0.024166667,0.0375,0.040833333,0.040833333,2.575,1.610833333,0,-5.762566667,27.906125,185.4380333,1.31,5.367760417,-14.9275
2.5345,0.010833333,0.0125,0.0475,0.051666667,2.025,1.365833333,0,-8.914483333,4.206391667,276.0170333,2.121979167,-1.155260417,-15.66265625
2.7184,0.0275,0.031666667,0.035833333,0.028333333,3.516666667,2.665833333,0,-28.747025,0.43905,186.2731667,7.388958333,-2.055260417,-13.76197917
2.9143,0.026666667,0.029166667,0.0475,0.041666667,1.966666667,1.106666667,0,-27.55831667,-0.082008333,171.19075,7.1415625,-2.252291667,-13.96776042
2.2402,0.025833333,0.040833333,0.045833333,0.0475,2.95,1.715833333,0.005,-24.55198333,36.9478,304.5047667,6.168333333,6.815885417,-12.58859375
2.7023,0.026666667,0.039166667,0.054166667,0.076666667,3.075,1.8625,0,-12.01049167,22.00290833,116.8116667,2.961979167,3.682239583,-15.17927083
2.5789,0.006666667,0.016666667,0.026666667,0.024166667,1.808333333,1.16,0,-6.282733333,30.9286,47.80359167,1.4234375,6.06109375,-14.71942708
2.1504,0.013333333,0.008333333,0.019166667,0.015833333,1.225,0.628333333,0,-2.61995,3.730933333,39.162925,0.337552083,-1.322864583,-15.84489583
1.3304,0.004166667,0.001666667,0.014166667,0.011666667,3.941666667,2.805833333,0,-9.143566667,29.60729167,39.70811667,2.239479167,5.536041667,-14.74927083
3.8323,0.023352794,0.031693078,0.020850709,0.025020851,2.185154295,1.231025855,0,1.358548791,30.31613011,32.98649708,0.108892827,5.393452877,-15.08230817
2.7211,0.015,0.015833333,0.0125,0.013333333,1.408333333,0.839166667,0,-9.353175,16.50091667,95.1382,2.296770833,2.15828125,-15.22307292
2.9296,0.019166667,0.039166667,0.033333333,0.034166667,1.841666667,0.941666667,8.33E-04,-5.030466667,1.133041667,93.75045,1.177083333,-2.072291667,-15.58911458
2.5643,8.33E-04,0.004166667,0.009166667,0.006666667,1.975,1.465,0,-12.63255,5.4086,255.2720417,3.133645833,-0.75390625,-15.56072917
3.0969,0.014166667,0.015,0.033333333,0.026666667,3.291666667,2.236666667,0,-7.623383333,25.575325,86.19635833,1.710572917,4.50140625,-14.38588542
2.6242,0.0325,0.050833333,0.059166667,0.086666667,2.75,1.414166667,0,-10.683075,30.08493333,83.06375,2.149791667,5.358802083,-13.27661458
2.0271,0.024166667,0.045833333,0.035,0.0325,4.491666667,3.441666667,0,-25.49010833,27.294925,280.0804333,6.3009375,4.641041667,-13.38260417
3.7451,0.011666667,0.0225,0.03,0.0325,2.283333333,1.295833333,0,-5.801058333,2.575241667,74.56630833,1.418125,-1.103333333,-15.73880208
3.0364,0.008333333,0.010833333,0.0075,0.011666667,1.641666667,1.094166667,0,-9.138466667,7.441725,255.97065,2.256041667,-0.247864583,-15.75494792
2.9579,8.33E-04,0.013333333,0.025,0.028333333,6.508333333,4.510833333,0,11.55141667,5.445966667,130.8083667,-3.547604167,-0.884375,-15.14630208
3.6249,0.015,0.01,0.015,0.016666667,2.45,1.433333333,0,-2.812383333,14.61204167,122.2698167,0.257447917,1.67765625,-14.9890625
3.27,0.003333333,0.005,0.015,0.015833333,2.075,1.470833333,0,-7.144791667,5.917991667,149.621475,1.819270833,-0.729947917,-15.81197917
3.2865,0.013333333,0.004166667,0.024166667,0.02,2.566666667,1.789166667,0,-7.193308333,2.80135,156.5553083,1.824166667,-1.568020833,-15.65927083
2.4173,0.031666667,0.041666667,0.009166667,0.015,3.583333333,2.2875,0,-6.83455,30.97715,266.4964333,1.69875,6.064010417,-14.72265625
2.0899,0.0325,0.035,0.055,0.05,5.616666667,3.9575,0,8.895975,2.1876,145.0558,-2.820208333,-1.69546875,-14.77510417
2.9369,0.008333333,0.011666667,0.028333333,0.035,2.75,2.013333333,0,-13.37111667,26.30270833,104.3494,3.334479167,4.719322917,-14.52015625
3.0476,0.015,0.030833333,0.038333333,0.039166667,5.533333333,4.115,0,7.385475,-0.679666667,256.7909667,-2.556458333,-2.1403125,-15.5959375
1.8441,0.014166667,0.018333333,0.014166667,0.016666667,2.308333333,1.495,8.33E-04,-19.65896667,42.98719167,75.41570833,5.134739583,8.099947917,-11.70760417
3.1581,0.0075,0.009166667,0.026666667,0.028333333,2.3,1.484166667,0,-7.7371,4.260566667,207.7094167,1.835885417,-1.114114583,-15.77447917
2.9813,0.0175,0.0225,0.02,0.0275,1.816666667,0.990833333,0,-5.710616667,10.49090833,263.8548833,1.2975,0.554375,-15.44385417
2.5037,0.029166667,0.053333333,0.059166667,0.065,3.225,1.679166667,0,-9.7884,18.93500833,63.98379167,1.886041667,3.08734375,-15.311875
4.6074,0.035,0.045833333,0.036666667,0.046666667,2.833333333,1.765,0,-12.248275,11.218325,83.64745833,2.821302083,0.831302083,-14.97255208
1.8648,0.015833333,0.0225,0.026666667,0.025833333,6.025,4.619166667,0,8.085241667,-1.734358333,258.7636917,-2.687083333,-3.00484375,-15.52416667
2.5735,0.01,0.014166667,0.025833333,0.023333333,1.408333333,1.073333333,0,-10.34725,16.5279,311.1278667,2.637864583,2.306822917,-15.50598958
